"Time (s)","Linear Acceleration x (m/s^2)","Linear Acceleration y (m/s^2)","Linear Acceleration z (m/s^2)"
1.616688200E-2,1.970562935E-1,-3.885989189E-1,-3.189082146E-1
2.439645900E-2,2.730290890E-1,-4.624423981E-1,2.437877655E-2
3.259572800E-2,2.929139137E-1,-4.482173920E-1,4.850473404E-1
4.071457400E-2,3.215110302E-1,-4.007120132E-1,6.856150627E-1
4.886799700E-2,3.509950638E-1,-3.713827133E-1,7.681603432E-1
5.700442000E-2,3.764081001E-1,-3.537340164E-1,7.632856369E-1
6.525149700E-2,3.529627323E-1,-3.205161095E-1,6.110877991E-1
7.344884300E-2,3.270764351E-1,-3.049240112E-1,4.314742088E-1
8.164630500E-2,2.775275707E-1,-2.682399750E-1,2.338371277E-1
8.984495900E-2,2.163522243E-1,-2.540812492E-1,9.668254852E-2
9.804284300E-2,1.364588737E-1,-2.751808167E-1,1.665401459E-2
1.062476120E-1,7.999324799E-2,-2.916278839E-1,-5.515956879E-2
1.144431890E-1,2.386975288E-2,-2.529225349E-1,-5.025339127E-2
1.225948820E-1,1.771616936E-2,-2.069516182E-1,5.872011185E-2
1.307921120E-1,1.515722275E-2,-1.618566513E-1,1.706771851E-1
1.389877280E-1,8.474302292E-2,-1.121654510E-1,2.379956245E-1
1.472276510E-1,1.503715515E-1,-1.062459946E-1,2.254490852E-1
1.554258430E-1,1.731054783E-1,-1.492328644E-1,2.325153351E-1
1.636219580E-1,1.183476448E-1,-1.301631927E-1,2.646884918E-1
1.718180350E-1,2.902626991E-2,-6.900501251E-2,3.260898590E-1
1.800152660E-1,3.811669350E-2,-4.553937912E-2,3.286242485E-1
1.882254200E-1,8.379220963E-2,-5.641937256E-3,2.876338959E-1
1.964229970E-1,6.353116035E-2,-1.301765442E-2,2.173929214E-1
2.046198040E-1,-3.386545181E-2,-2.151727676E-2,1.094689369E-1
2.128169200E-1,-4.234099388E-2,-9.023189545E-3,2.343797684E-2
2.210141890E-1,-8.047413826E-2,1.306056976E-3,1.286363602E-2
2.292246120E-1,-1.270172596E-1,2.199268341E-2,-4.477024078E-3
2.374227270E-1,-1.869981289E-1,1.212196350E-1,8.921670914E-2
2.456208430E-1,-2.268419266E-1,1.546106339E-1,2.018313408E-1
2.538184190E-1,-2.534739971E-1,1.440377235E-1,2.685623169E-1
2.620152270E-1,-3.267612457E-1,1.362981796E-1,3.057074547E-1
2.702266890E-1,-4.350965023E-1,2.755632401E-1,3.102598190E-1
2.784255730E-1,-3.785505295E-1,3.457980156E-1,3.659963608E-1
2.866238040E-1,-2.524087429E-1,3.657736778E-1,3.813571930E-1
2.948494580E-1,-1.200282574E-1,4.290165901E-1,3.489561081E-1
3.030462270E-1,-1.454875469E-1,3.877267838E-1,3.629150391E-1
3.112549580E-1,-2.550771236E-1,3.043532372E-1,4.280090332E-1
3.194510350E-1,-3.384721279E-1,2.625932693E-1,4.072413445E-1
3.276491880E-1,-4.232130051E-1,2.793927193E-1,3.430266380E-1
3.358451500E-1,-3.432190418E-1,2.739238739E-1,3.789458275E-1
3.440434580E-1,-1.863508224E-1,3.758578300E-1,3.976993561E-1
3.522549960E-1,7.308006287E-2,3.486976624E-1,3.224468231E-2
3.604514190E-1,5.214185715E-1,1.227345467E-1,-3.912324905E-1
3.686482650E-1,3.665258884E-1,8.386373520E-2,-7.741575241E-1
3.768451500E-1,-2.803940773E-1,7.120399475E-1,-7.635211945E-1
3.850429960E-1,-6.158080101E-1,8.092913628E-1,-5.048274994E-1
3.932835730E-1,-9.347944260E-1,9.351286888E-1,-4.593544006E-1
4.014798040E-1,-8.093822002E-1,9.108748436E-1,-2.742342949E-1
4.096758420E-1,-6.761426926E-1,8.155531883E-1,1.850128174E-4
4.178706880E-1,-9.715914726E-2,1.004467487E0,3.055186272E-1
4.260658420E-1,1.645429134E-1,1.015035629E0,5.795955658E-1
4.342712650E-1,7.944704294E-1,6.758708954E-1,6.754255295E-1
4.424670730E-1,-9.336566925E-2,4.043188095E-1,6.465559006E-1
4.506678800E-1,-6.712734699E-1,4.482941628E-1,-2.563762665E-2
4.588969960E-1,-4.366416931E-1,5.784959793E-1,-5.686187744E-1
4.670922650E-1,-2.374337912E-1,5.515532494E-1,-9.110136032E-1
4.752988800E-1,-5.362570286E-2,4.717316628E-1,-1.249089718E0
4.834943030E-1,1.272690296E-2,2.485375404E-1,-1.379300594E0
4.916904570E-1,-1.448904276E-1,-1.794195175E-1,-1.114303589E0
4.998879570E-1,-3.221153021E-1,-6.022171974E-1,-8.871560097E-1
5.080853420E-1,-1.741465330E-1,-9.978289604E-1,-6.116995811E-1
5.162891490E-1,3.246034384E-1,-1.215355873E0,-3.449468613E-1
5.244840340E-1,8.787316084E-1,-1.338303566E0,-2.280077934E-1
5.326788800E-1,1.449067712E0,-1.568542957E0,-1.592016220E-1
5.408952650E-1,1.944880962E0,-1.696089745E0,7.807779312E-2
5.490906880E-1,2.341818810E0,-1.866231918E0,3.366813660E-1
5.572908030E-1,2.632283211E0,-2.122906208E0,6.045870781E-1
5.654869570E-1,2.910130024E0,-1.957082748E0,9.032478333E-1
5.736841110E-1,3.208007812E0,-1.693209171E0,9.648838043E-1
5.819086490E-1,3.456997633E0,-1.455889702E0,8.234667778E-1
5.901039180E-1,3.332659960E0,-1.001100063E0,5.638237000E-1
5.983089180E-1,2.045386791E0,-1.005358696E-1,5.014815331E-1
6.065031870E-1,8.964806795E-1,5.121684074E-1,2.267937660E-1
6.146972640E-1,-1.016485691E-1,7.658348083E-1,-7.253694534E-2
6.229193800E-1,-6.962108612E-1,6.850380898E-1,-1.605024338E-1
6.311148800E-1,-8.697471619E-1,3.300371170E-1,-2.365155220E-1
6.393451100E-1,-8.238784075E-1,-2.193021774E-2,-1.893663406E-1
6.475432640E-1,-5.656841993E-1,-2.647981644E-1,-1.298408508E-1
6.557410330E-1,-1.958292723E-1,-3.601727486E-1,-1.509757042E-1
6.639650720E-1,1.390668154E-1,-2.668161392E-1,-1.499085426E-1
6.721593030E-1,3.107899427E-1,-1.256809235E-1,-1.194920540E-1
6.803679180E-1,4.139786959E-1,-6.309890747E-2,-7.189607620E-2
6.885635720E-1,4.640166163E-1,-3.188371658E-2,1.013398170E-1
6.967586870E-1,5.233664513E-1,-3.083372116E-2,2.982215881E-1
7.049544180E-1,5.341143608E-1,1.028060913E-2,4.265098572E-1
7.131490330E-1,5.470712781E-1,6.846332550E-2,4.299044609E-1
7.213576870E-1,5.221370459E-1,8.205938339E-2,3.991189003E-1
7.295529560E-1,4.562509060E-1,5.801630020E-2,3.580589294E-1
7.377479950E-1,3.624594212E-1,-2.902030945E-3,3.346595764E-1
7.459431480E-1,2.642899156E-1,-9.108066559E-2,2.593860626E-1
7.541380330E-1,1.903530359E-1,-1.495018005E-1,1.205625534E-1
7.623479180E-1,2.208925486E-1,-1.207771301E-1,-2.570152283E-3
7.705434940E-1,2.812052369E-1,-9.262847900E-2,-1.007938385E-1
7.787396870E-1,2.141876221E-1,-8.083391190E-2,-1.531534195E-1
7.869645330E-1,1.175413132E-1,-6.805562973E-2,-2.080202103E-1
7.951601480E-1,4.462635517E-2,-1.088566780E-1,-2.516446114E-1
8.033688400E-1,-1.810300350E-2,-1.050529480E-1,-1.956820488E-1
8.115651480E-1,-6.704485416E-2,-1.220321655E-1,-8.046722412E-2
8.197619940E-1,-8.718383312E-2,-1.392064095E-1,1.734385490E-1
8.279581100E-1,-1.482610703E-1,-1.349868774E-1,4.024672508E-1
8.361543400E-1,-1.669551134E-1,-1.903080940E-1,5.025601387E-1
8.443604560E-1,-1.014885902E-1,-2.451357841E-1,3.612122536E-1
8.525568400E-1,-1.261234283E-3,-2.072701454E-1,1.384544373E-1
8.607523790E-1,9.474599361E-2,-1.538805962E-1,7.025623322E-2
8.689473020E-1,1.543024778E-1,-1.247396469E-1,-7.017135620E-3
8.771429940E-1,1.729272604E-1,-1.015467644E-1,-6.636905670E-2
8.853799170E-1,2.430143356E-1,-8.749246597E-2,1.062011719E-2
8.935747250E-1,2.725890279E-1,-1.239881516E-1,1.955780983E-1
9.017710710E-1,2.762159705E-1,-1.453504562E-1,3.267011642E-1
9.100000710E-1,3.015097976E-1,-1.633796692E-1,2.265920639E-1
9.181971480E-1,2.959325910E-1,-1.851501465E-1,-3.052377701E-2
9.264050320E-1,2.873501182E-1,-7.163476944E-2,-3.559360504E-1
9.346001480E-1,2.448650599E-1,4.230833054E-2,-5.257091522E-1
9.427944550E-1,1.563323736E-1,1.630177498E-1,-5.529599190E-1
9.510223780E-1,1.466169357E-1,2.410144806E-1,-4.912586212E-1
9.592172630E-1,1.565915346E-1,2.929973602E-1,-3.599848747E-1
9.674256090E-1,1.051453352E-1,3.180990219E-1,-2.638125420E-1
9.756204940E-1,1.488161087E-2,2.987661362E-1,-1.828446388E-1
9.838156860E-1,-3.162705898E-2,2.724075317E-1,-1.097316742E-1
9.920110710E-1,-5.269217491E-2,1.946454048E-1,-1.214480400E-1
1.000207032E0,-5.746936798E-2,1.160850525E-1,-8.168697357E-2
1.008414878E0,-9.145629406E-2,5.565214157E-2,5.282115936E-2
1.016611340E0,-2.565318346E-1,6.747388840E-2,2.897195816E-1
1.024808224E0,-3.744076490E-1,8.316946030E-2,5.435647964E-1
1.033031340E0,-3.658738136E-1,6.715297699E-2,7.511968613E-1
1.041228686E0,-2.877587080E-1,1.432800293E-2,8.506722450E-1
1.049436340E0,-1.741529703E-1,-7.993602753E-2,8.254046440E-1
1.057553493E0,-5.594277382E-2,-1.073083878E-1,7.061328888E-1
1.065713532E0,1.699686050E-2,-9.537792206E-2,5.376067162E-1
1.073907147E0,6.863081455E-2,-9.417200089E-2,4.010534286E-1
1.082099647E0,7.760393620E-2,-8.650827408E-2,2.483239174E-1
1.090306455E0,1.073119640E-1,-1.097717285E-1,9.701681137E-2
1.098500301E0,1.487278938E-1,-1.495990753E-1,-5.446052551E-2
1.106695109E0,1.633745432E-1,-1.241030693E-1,-1.298637390E-1
1.114920685E0,9.363591671E-2,-6.083488464E-2,-1.707463264E-1
1.123114839E0,7.615530491E-2,-2.147865295E-2,-1.781873703E-1
1.131354801E0,6.556105614E-2,3.474617004E-2,-2.096843719E-1
1.139550224E0,5.594182014E-2,1.005263329E-1,-3.008661270E-1
1.147743724E0,1.150236130E-1,1.047172546E-1,-3.970465660E-1
1.156051570E0,1.570031643E-1,1.578574181E-1,-4.290251732E-1
1.164245839E0,2.354595065E-1,1.862883568E-1,-3.662996292E-1
1.172455801E0,3.542013764E-1,1.704006195E-1,-3.236093521E-1
1.180652224E0,3.873655200E-1,9.107923508E-2,-2.697072029E-1
1.188849493E0,3.360311985E-1,6.437301636E-3,-1.522145271E-1
1.197042916E0,1.925766468E-1,-6.601333618E-3,1.422595978E-2
1.205237570E0,5.413627625E-2,-1.546621323E-2,1.938357353E-1
1.213445300E0,-5.998039246E-2,-2.287483215E-2,3.270173073E-1
1.221639300E0,-1.260712147E-1,-2.794742584E-2,4.914093018E-1
1.229835262E0,-1.500126123E-1,-6.053256989E-2,5.870704651E-1
1.238064454E0,-1.343742609E-1,-1.024346352E-1,6.337823868E-1
1.246260185E0,-1.139367819E-1,-1.252179146E-1,5.983886719E-1
1.254469608E0,-7.618498802E-2,-1.570949554E-1,5.643997192E-1
1.262666454E0,-5.433595181E-2,-1.280202866E-1,5.003070831E-1
1.270862723E0,-9.180653095E-2,-1.075062752E-1,3.462657928E-1
1.279085762E0,-1.217767000E-1,-6.653404236E-2,2.265367508E-1
1.287281031E0,-9.459662437E-2,-2.672147751E-2,1.315040588E-1
1.295488608E0,-1.138490438E-1,1.450014114E-2,8.010864258E-2
1.303684531E0,-8.154988289E-2,5.468177795E-2,-4.253387451E-3
1.311880262E0,-2.169358730E-2,8.215093613E-2,-1.026401520E-1
1.320116492E0,8.828520775E-3,8.779430389E-2,-2.320437431E-1
1.328303415E0,3.982532024E-2,7.483673096E-2,-2.923254967E-1
1.336512762E0,6.868135929E-2,7.494306564E-2,-3.198046684E-1
1.344706723E0,1.508076191E-1,8.821773529E-2,-3.432354927E-1
1.352899531E0,1.760869026E-1,8.544826508E-2,-3.574948311E-1
1.361093146E0,1.562851667E-1,1.192998886E-2,-2.982196808E-1
1.369286723E0,1.716969013E-1,-6.331443787E-2,-2.730269432E-1
1.377524415E0,1.837928295E-1,-1.330280304E-1,-2.772121429E-1
1.385716915E0,2.335601449E-1,-9.236431122E-2,-2.864422798E-1
1.393910107E0,2.206732631E-1,-6.324863434E-2,-2.912330627E-1
1.402103646E0,2.362428308E-1,-4.053878784E-2,-2.391352654E-1
1.410296146E0,2.871156931E-1,-6.759023666E-2,-2.449359894E-1
1.418501223E0,3.240264058E-1,-7.696294785E-2,-2.106065750E-1
1.426694261E0,3.190475106E-1,-1.045827866E-1,-1.216530800E-1
1.434888569E0,2.883404493E-1,-9.124565125E-2,-5.193519592E-2
1.443115953E0,2.506631613E-1,-8.519601822E-2,-8.443832397E-3
1.451309146E0,2.012905478E-1,-6.993532181E-2,3.055381775E-2
1.459516453E0,1.806422472E-1,-1.071839333E-1,4.790019989E-2
1.467711376E0,1.238378286E-1,-9.210014343E-2,1.061515808E-1
1.475904915E0,1.009100676E-1,-8.501672745E-2,1.434659958E-1
1.484097069E0,7.430481911E-2,-3.609371185E-2,1.363058090E-1
1.492289569E0,8.750021458E-2,-1.440048218E-4,4.863452911E-2
1.500497607E0,1.181824207E-1,2.552652359E-2,-8.394670486E-2
1.508690376E0,1.301130056E-1,4.931354523E-2,-2.192101479E-1
1.516884645E0,1.325576305E-1,7.430028915E-2,-2.283792496E-1
1.525102953E0,1.232622862E-1,1.173787117E-1,-1.306781769E-1
1.533298415E0,1.645545959E-1,6.442070007E-4,-7.403421402E-2
1.541506645E0,7.819616795E-2,4.716968536E-2,-4.139995575E-2
1.549702299E0,2.236199379E-2,3.127002716E-2,-3.594398499E-3
1.557895722E0,4.283579588E-1,-4.246511459E-1,1.272144318E-1
1.566090338E0,7.959016562E-1,-5.726795197E-1,3.377618790E-1
1.574285107E0,1.153430462E0,-6.925940514E-1,4.957580566E-1
1.582496068E0,1.298190236E0,-1.357863426E0,8.478555679E-1
1.590693337E0,1.622800589E0,-1.653876066E0,1.274352074E0
1.598890722E0,1.763732433E0,-1.649174929E0,1.405561447E0
1.607114184E0,1.480643153E0,-8.210020065E-1,1.279545784E0
1.615308337E0,1.073688269E0,-4.135441780E-1,8.493108749E-1
1.623539914E0,2.200277090E0,-6.617498398E-2,7.388067245E-1
1.631737683E0,2.489862919E0,2.082252502E-2,5.809555054E-1
1.639931722E0,2.564706087E0,3.318042755E-1,6.555452347E-1
1.648152799E0,1.981338978E0,1.062216759E0,1.025771141E0
1.656345645E0,5.115301609E-1,1.082931995E0,1.768379211E-1
1.664543337E0,-6.148372889E-1,5.797271729E-1,-7.013683319E-1
1.672736453E0,-1.516282320E0,5.529742241E-1,-1.053842068E0
1.680929837E0,-2.216245651E0,6.417932510E-1,-1.338098049E0
1.689150414E0,-2.830235243E0,7.994308472E-1,-1.626379967E0
1.697343722E0,-3.323308229E0,9.382510185E-1,-1.743028641E0
1.705540299E0,-3.638716698E0,1.129188061E0,-1.605860710E0
1.713734029E0,-3.715932369E0,1.233327866E0,-1.320678234E0
1.721928414E0,-3.507421017E0,1.366549015E0,-5.415654182E-1
1.730150068E0,-3.185458183E0,1.181168556E0,-4.134936333E-1
1.738345452E0,-2.625864029E0,3.227500916E-1,-5.503654480E-2
1.746546375E0,-1.221244216E0,-6.389741898E-1,5.910034180E-1
1.754740375E0,5.798459053E-2,-9.734377861E-1,5.685791969E-1
1.762933375E0,1.136494994E0,-9.535193443E-1,-2.752971649E-2
1.771147452E0,1.681345940E0,-8.164463043E-1,-1.781315804E-1
1.779339991E0,1.354987621E0,-5.560417175E-1,1.465301514E-1
1.787538837E0,7.868684530E-1,-1.974511147E-1,6.547451019E-3
1.795731914E0,3.281288147E-1,1.770176888E-1,-2.939105034E-1
1.803923875E0,1.023968458E-1,2.782068253E-1,-3.675408363E-1
1.812145298E0,4.697906971E-2,2.160487175E-1,-3.555331230E-1
1.820336452E0,1.058207750E-1,1.067099571E-1,-2.596583366E-1
1.828536183E0,2.251904011E-1,4.299116135E-2,-1.803002357E-1
1.836729837E0,3.574995995E-1,3.456115723E-3,-2.090463638E-1
1.844926106E0,4.946920872E-1,-2.709388733E-3,-1.944012642E-1
1.853156798E0,5.633556843E-1,1.832008362E-3,-9.941768646E-2
1.861353913E0,6.452054977E-1,-3.137111664E-2,-2.173995972E-2
1.869591413E0,6.285429001E-1,-4.804039001E-2,8.562421799E-2
1.877787721E0,3.863431215E-1,-8.248424530E-2,9.715795517E-2
1.885983490E0,1.755418777E-1,-1.364312172E-1,2.130079269E-2
1.894179836E0,7.921695709E-3,-1.495227814E-1,-9.444761276E-2
1.902376298E0,-1.416194439E-1,-1.539568901E-1,-2.489876747E-1
1.910586798E0,-2.368540764E-1,-9.898662567E-2,-2.797574997E-1
1.918784259E0,-3.019890785E-1,-2.709817886E-2,-1.904182434E-1
1.926982182E0,-3.181920052E-1,6.363058090E-2,-3.581190109E-2
1.935178221E0,-3.978414536E-1,1.315889359E-1,9.378576279E-2
1.943375605E0,-3.857896328E-1,1.447997093E-1,2.802419662E-1
1.951585990E0,-4.006805420E-1,1.833071709E-1,3.166208267E-1
1.959782336E0,-3.564746380E-1,1.555318832E-1,2.033243179E-1
1.967975798E0,-4.600756168E-1,1.647443771E-1,1.369009018E-1
1.976169759E0,-5.382850170E-1,2.690558434E-1,9.635639191E-2
1.984365874E0,-4.172332287E-1,2.966675758E-1,1.096167564E-1
1.992576413E0,-2.540915012E-1,2.209882736E-1,1.986713409E-1
2.000774144E0,-2.040336132E-1,1.251344681E-1,2.444634438E-1
2.008972797E0,-1.692428589E-1,6.838321686E-2,2.577257156E-1
2.017199451E0,-2.283809185E-1,-3.885269165E-3,1.951470375E-1
2.025396528E0,-3.021740913E-1,3.798103333E-2,1.235799789E-1
2.033604028E0,-3.010950089E-1,5.471229553E-2,-2.094984055E-2
2.041800336E0,-3.279089928E-1,1.223235130E-1,-4.344272614E-2
2.049996951E0,-3.177652359E-1,1.203670502E-1,-1.587128639E-1
2.058193490E0,-2.552211285E-1,2.531385422E-2,-2.134413719E-1
2.066388566E0,-2.726831436E-1,-3.587675095E-2,-2.438488007E-1
2.074647874E0,-2.679340839E-1,-2.733898163E-2,-2.501621246E-1
2.082844566E0,-3.006396294E-1,6.550788879E-2,-2.980532646E-1
2.091044989E0,-3.432312012E-1,8.499956131E-2,-3.538250923E-1
2.099240182E0,-3.861460686E-1,1.289548874E-1,-3.214464188E-1
2.107435797E0,-3.559815884E-1,1.662411690E-1,-2.634992599E-1
2.115674259E0,-2.222967148E-1,1.342153549E-1,-2.134685516E-1
2.123869759E0,-3.929996490E-2,1.081681252E-1,-1.896343231E-1
2.132064720E0,6.565022469E-2,6.403684616E-2,-1.169252396E-1
2.140259028E0,9.853315353E-2,1.342821121E-2,-1.118855476E-1
2.148453566E0,-7.244110107E-3,1.569509506E-2,-1.188569069E-1
2.156660835E0,-1.616797447E-1,1.241683960E-3,-3.276300430E-2
2.164858989E0,-1.609640121E-1,-3.752517700E-2,1.731872559E-1
2.173056528E0,-1.153423786E-1,-1.153421402E-2,4.057703018E-1
2.181253297E0,-1.318335533E-1,1.885652542E-2,3.880119324E-1
2.189450604E0,-1.647603512E-1,3.299331665E-2,2.198572159E-1
2.197660374E0,-2.442336082E-1,3.115510941E-2,1.170430183E-1
2.205857412E0,-3.045835495E-1,7.663011551E-2,-6.174659729E-2
2.214054720E0,-5.549457073E-1,1.552443504E-1,-1.599268913E0
2.222278643E0,-5.830996037E-1,2.463974953E-1,-1.270174026E0
2.230474797E0,-2.352280617E-1,2.256402969E-1,-9.136705399E-1
2.238680143E0,1.380283833E-1,6.115770340E-2,-3.740248680E-1
2.246863950E0,1.278622150E-1,8.657217026E-2,9.885931015E-2
2.255061258E0,-2.148246765E-2,1.519002914E-1,1.256351471E-1
2.263277489E0,-2.357747555E-1,1.559896469E-1,-6.813383102E-2
2.271473527E0,-3.449935913E-1,9.725952148E-2,-7.239675522E-2
2.279676527E0,-4.861371517E-1,1.408085823E-1,-9.406089783E-3
2.287872219E0,-6.512963772E-1,1.470079422E-1,-1.583094597E-1
2.296067104E0,-5.179219246E-1,9.596443176E-2,-4.315028191E-1
2.304296142E0,-6.066346169E-1,1.827282906E-1,-1.137611866E0
2.312491758E0,-7.048473358E-1,2.711906433E-1,-1.521410465E0
2.320695142E0,-6.668140888E-1,2.933855057E-1,-1.465586662E0
2.328890950E0,-4.105050564E-1,1.503176689E-1,-9.765686989E-1
2.337085488E0,-5.756378174E-2,-3.617715836E-2,-2.641005516E-1
2.345308642E0,1.926233768E-1,-9.442329407E-2,3.555746078E-1
2.353505796E0,3.285112381E-1,-1.113576889E-1,7.939968109E-1
2.361737988E0,3.630712032E-1,-1.530923843E-1,9.617424011E-1
2.369932758E0,3.166513443E-1,-1.875338554E-1,9.345970154E-1
2.378126681E0,1.500263214E-1,-1.638646126E-1,7.523331642E-1
2.386345373E0,7.219314575E-3,-4.274702072E-2,4.634723663E-1
2.394541642E0,-1.207671165E-1,6.211709976E-2,1.045374870E-1
2.402749411E0,-1.427526474E-1,1.008100510E-1,-2.079229355E-1
2.410944719E0,-1.309006214E-1,1.000933647E-1,-3.762197495E-1
2.419139950E0,-2.029716969E-1,7.307291031E-2,-4.062170982E-1
2.427366373E0,-2.941009998E-1,3.142786026E-2,-2.616391182E-1
2.435559142E0,-2.821691036E-1,-2.127170563E-2,-5.877542496E-2
2.443765527E0,-2.365190983E-1,-1.024203300E-1,1.335153580E-1
2.451960988E0,-1.019768715E-1,-1.251125336E-1,3.051328659E-1
2.460156680E0,1.984071732E-2,-1.199321747E-1,3.790497780E-1
2.468352450E0,1.174378395E-1,-9.727191925E-2,3.417315483E-1
2.476549219E0,1.973590851E-1,-3.085422516E-2,2.705116272E-1
2.484760142E0,2.214045525E-1,-1.626253128E-2,1.365323067E-1
2.492957257E0,2.168285847E-1,-2.155303955E-4,9.085178375E-3
2.501155680E0,1.732363701E-1,-3.659725189E-3,-5.756759644E-2
2.509380295E0,6.555390358E-2,5.566740036E-2,-1.004533768E-1
2.517577026E0,-1.521739960E-1,1.345672607E-1,-8.136320114E-2
2.525785449E0,-2.509706020E-1,1.733040810E-1,-3.423213959E-2
2.533982334E0,-1.685578823E-1,7.537746429E-2,-7.100439072E-2
2.542178142E0,-8.877277374E-2,-2.950668335E-2,-1.415295601E-1
2.550373988E0,-8.755826950E-2,-7.643032074E-2,-1.906986237E-1
2.558572872E0,-1.102297306E-1,-8.468008041E-2,-2.520713806E-1
2.566783065E0,-1.270887852E-1,-1.296567917E-2,-2.931070328E-1
2.574980372E0,-1.263525486E-1,5.466890335E-2,-3.184590340E-1
2.583177564E0,-6.230998039E-2,4.517889023E-2,-2.026243210E-1
2.591374103E0,2.588009834E-2,-1.691770554E-2,1.779890060E-2
2.599570064E0,8.836817741E-2,-1.384015083E-1,2.519946098E-1
2.607811334E0,1.053862572E-1,-2.124724388E-1,4.962506294E-1
2.616009718E0,8.435368538E-2,-2.323446274E-1,6.578078270E-1
2.624208872E0,7.122206688E-2,-1.835083961E-1,6.696329117E-1
2.632405564E0,7.347631454E-2,-1.497907639E-1,5.605440140E-1
2.640602410E0,7.645034790E-2,-1.302194595E-1,3.751692772E-1
2.648812410E0,4.628634453E-2,-8.340597153E-2,1.463837624E-1
2.657009987E0,-1.138734818E-2,-1.251840591E-2,-2.043104172E-2
2.665208833E0,-9.150743484E-3,1.831340790E-2,-1.350317001E-1
2.673407756E0,-6.415843964E-4,4.038953781E-2,-1.523933411E-1
2.681606603E0,-6.059312820E-2,4.699468613E-2,-1.807761192E-1
2.689817987E0,-6.166887283E-2,-1.453781128E-2,-1.098961830E-1
2.698015218E0,-1.700377464E-2,-3.961133957E-2,-1.299476624E-2
2.706213718E0,6.272912025E-2,-1.219034195E-2,6.221914291E-2
2.714413564E0,1.450235844E-1,-3.828287125E-2,9.982299805E-2
2.722613410E0,1.798994541E-1,-9.388732910E-2,-2.941942215E-2
2.730824718E0,1.310322285E-1,-7.284402847E-2,-1.969623566E-1
2.739022218E0,6.579709053E-2,-7.225513458E-2,-1.856188774E-1
2.747220948E0,4.915952682E-3,-3.456306458E-2,-1.489624977E-1
2.755446948E0,-3.197145462E-2,-6.080627441E-2,-1.199874878E-1
2.763645564E0,-4.213285446E-2,-1.008148193E-1,-6.498384476E-2
2.771857256E0,-6.380224228E-2,-1.312685013E-1,2.171516418E-3
2.780055602E0,-1.038939953E-1,-8.323383331E-2,8.672094345E-2
2.788253218E0,-6.047320366E-2,-6.945610046E-3,2.361855507E-1
2.796450141E0,4.463195801E-3,3.901481628E-3,2.354040146E-1
2.804647679E0,-2.823185921E-2,1.180076599E-2,1.992998123E-1
2.812857987E0,-5.033493042E-2,1.905679703E-2,1.927351952E-1
2.821055602E0,-6.659007072E-2,-1.500034332E-2,1.702094078E-1
2.829252679E0,-6.779980659E-2,-6.130409241E-2,1.409258842E-1
2.837448487E0,-5.415320396E-2,-1.031594276E-1,6.895780563E-2
2.845644333E0,-9.022688866E-2,-1.186857224E-1,2.111721039E-2
2.853885602E0,-1.533176899E-1,-6.689214706E-2,-7.994651794E-3
2.862081371E0,-1.697485447E-1,-5.302429199E-3,7.830619812E-3
2.870278333E0,-1.451451778E-1,3.713178635E-2,6.609916687E-2
2.878476140E0,-1.067335606E-1,7.488393784E-2,3.238153458E-2
2.886674294E0,-3.088808060E-2,5.775737762E-2,4.375171661E-2
2.894885717E0,3.744554520E-2,3.306198120E-2,2.658891678E-2
2.903084679E0,1.040904522E-1,2.006816864E-2,-2.605009079E-2
2.911281640E0,1.261951923E-1,-3.626823425E-2,-1.069293022E-1
2.919477794E0,9.613680840E-2,-3.476619720E-2,-1.687631607E-1
2.927675179E0,2.795529366E-2,-3.250026703E-2,-1.927919388E-1
2.935886602E0,-4.745554924E-2,-1.518821716E-2,-2.053556442E-1
2.944084678E0,-1.084842682E-1,-2.575302124E-2,-1.012201309E-1
2.952282486E0,-1.031255722E-1,-1.677274704E-2,7.426500320E-2
2.960481640E0,-4.454684258E-2,-4.649257660E-2,1.927576065E-1
2.968680178E0,6.327986717E-2,-8.694028854E-2,2.790060043E-1
2.976890871E0,1.275875568E-1,-1.311020851E-1,2.471213341E-1
2.985089140E0,1.146016121E-1,-7.631492615E-2,1.403279305E-1
2.993286909E0,8.267974854E-2,1.585960388E-3,-4.718494415E-2
3.001511063E0,4.840755463E-2,3.194808960E-3,-1.630959511E-1
3.009708371E0,1.844835281E-2,-2.069711685E-2,-2.127270699E-1
3.017917755E0,1.448321342E-2,-2.920246124E-2,-2.033600807E-1
3.026114255E0,1.967549324E-2,-1.259803772E-2,-1.662502289E-1
3.034310793E0,4.860162735E-2,-1.901149750E-2,-8.678960800E-2
3.042507601E0,3.251791000E-2,-3.580570221E-3,-2.416038513E-2
3.050703178E0,2.875781059E-2,-2.179527283E-2,2.191019058E-2
3.058914909E0,2.998232841E-2,-3.282880783E-2,3.398418427E-3
3.067113909E0,8.150243759E-2,-5.579853058E-2,-6.540822983E-2
3.075310793E0,1.078441143E-1,-7.422494888E-2,-6.425857544E-2
3.083449255E0,3.796696663E-2,-3.006982803E-2,-7.306432724E-2
3.091646793E0,5.928277969E-3,1.935625076E-2,-1.532316208E-2
3.099890178E0,-5.342102051E-2,2.812623978E-2,1.336765289E-2
3.108088293E0,-3.688287735E-2,5.594873428E-2,5.628967285E-2
3.116286447E0,-2.990722656E-2,2.366876602E-2,4.194211960E-2
3.124483755E0,-5.179119110E-2,-3.772115707E-2,2.783966064E-2
3.132681255E0,-7.342195511E-2,8.422374725E-3,7.142686844E-2
3.140888524E0,-4.293251038E-2,9.120941162E-3,1.363725662E-1
3.149084639E0,-2.498865128E-3,2.829694748E-2,1.229186058E-1
3.157281908E0,-2.782154083E-2,2.784252167E-2,1.461014748E-1
3.165479678E0,-1.887178421E-2,7.928800583E-2,1.509194374E-1
3.173676755E0,-4.485607147E-2,7.977056503E-2,1.828618050E-1
3.181889216E0,-6.053018570E-2,5.768918991E-2,1.678824425E-1
3.190088101E0,-6.773376465E-2,-1.539802551E-2,1.059269905E-1
3.198286485E0,-7.201981544E-2,-4.336595535E-2,-1.306104660E-2
3.206490639E0,-7.161378860E-2,-5.685472488E-2,-1.249742508E-1
3.214690139E0,-6.715774536E-2,-1.705837250E-2,-1.992449760E-1
3.222904100E0,-6.878852844E-2,5.231523514E-2,-2.218432426E-1
3.231104524E0,1.435494423E-2,9.646177292E-2,-1.259598732E-1
3.239302485E0,6.500077248E-2,6.214523315E-2,-1.890325546E-2
3.247527870E0,8.868360519E-2,5.414628983E-2,4.728746414E-2
3.255725023E0,9.088611603E-2,1.466464996E-2,8.264112473E-2
3.263896331E0,9.803748131E-2,3.231477737E-2,6.561613083E-2
3.272059062E0,9.397602081E-2,2.794837952E-2,4.197597504E-2
3.280256485E0,9.510922432E-2,6.154394150E-2,1.392221451E-2
3.288454062E0,7.032823563E-2,6.134700775E-2,-3.774881363E-2
3.296652062E0,5.832552910E-2,4.214429855E-2,-3.662586212E-2
3.304861446E0,6.838226318E-2,7.083654404E-2,-4.733514786E-2
3.313057100E0,7.651209831E-2,3.304147720E-2,-8.704853058E-2
3.321232639E0,8.266568184E-2,-2.115058899E-2,-1.317005157E-1
3.329419831E0,6.014537811E-2,-7.240247726E-2,-1.312532425E-1
3.337617485E0,8.206129074E-3,-8.210086823E-2,-1.100854874E-1
3.345858831E0,-2.509641647E-2,-8.668613434E-2,-7.494115829E-2
3.354056946E0,-1.531982422E-2,-5.283260345E-2,-3.510856628E-2
3.362255215E0,-1.503825188E-2,-3.346347809E-2,2.441883087E-3
3.370453754E0,-4.671335220E-3,-1.444816589E-2,3.560972214E-2
3.378650754E0,-1.013040543E-2,-3.137588501E-3,3.112316132E-2
3.386863177E0,-2.997159958E-3,3.052711487E-3,-4.066944122E-3
3.395060061E0,-4.037332535E-2,-4.965782166E-3,-5.824804306E-2
3.403258369E0,-2.760219574E-2,3.780937195E-2,-1.080627441E-1
3.411455177E0,-1.264286041E-2,1.162433624E-2,-1.008243561E-1
3.419652407E0,6.755352020E-3,2.432489395E-2,-1.084809303E-1
3.427863523E0,-5.318641663E-3,3.504419327E-2,-6.626367569E-2
3.436060907E0,-3.669810295E-2,4.348134995E-2,1.653003693E-2
3.444256830E0,-2.788162231E-2,2.543258667E-2,9.689617157E-2
3.452451869E0,-2.890467644E-2,-1.247644424E-2,1.178593636E-1
3.460646484E0,6.019353867E-3,-1.268577576E-2,6.027555466E-2
3.468857830E0,-9.080648422E-3,4.420948029E-2,4.372882843E-2
3.477055907E0,-3.113222122E-2,7.219219208E-2,3.440856934E-3
3.485253715E0,-4.441213608E-2,9.084367752E-2,-5.162143707E-2
3.493479099E0,-7.638931274E-3,2.121734619E-2,-7.106256485E-2
3.501674099E0,1.750898361E-2,-1.678133011E-2,-4.768466949E-2
3.509884984E0,4.278421402E-3,7.348060608E-4,-2.226495743E-2
3.518081599E0,3.092765808E-3,-1.041793823E-2,1.510047913E-2
3.526278061E0,1.826596260E-2,1.396274567E-2,5.024337769E-2
3.534474484E0,2.135968208E-2,3.087711334E-2,6.162452698E-2
3.542671638E0,7.947206497E-2,-5.125999451E-4,7.090806961E-2
3.550882676E0,9.873795509E-2,-2.031564713E-2,6.107330322E-3
3.559079099E0,1.302332878E-1,-1.158714294E-2,-1.537609100E-2
3.567274984E0,1.261577606E-1,1.817226410E-3,-4.625749588E-2
3.575472215E0,1.007847786E-1,2.726650238E-2,-9.867048264E-2
3.583667868E0,4.266619682E-2,-6.786823273E-3,-1.439466476E-1
3.591909330E0,-9.886264801E-3,-2.599334717E-2,-1.702113152E-1
3.600105599E0,-1.925945282E-3,-2.543354034E-2,-1.321010590E-1
3.608302291E0,5.907201767E-2,-3.887033463E-2,-1.324720383E-1
3.616500137E0,1.131684780E-1,-2.790784836E-2,-1.714100838E-1
3.624697330E0,1.024956703E-1,-1.872968674E-2,-1.653466225E-1
3.632908137E0,2.913737297E-2,-1.380920410E-3,-1.385879517E-1
3.641105176E0,1.992487907E-2,-1.008272171E-2,-7.866001129E-2
3.649300560E0,1.773118973E-2,-9.043693542E-3,1.462078094E-2
3.657496060E0,-8.454084396E-3,1.835489273E-2,6.238365173E-2
3.665691253E0,-2.229261398E-2,4.549074173E-2,9.368896484E-2
3.673899599E0,-1.172924042E-2,2.687072754E-2,1.372914314E-1
3.682095099E0,-1.780366898E-2,6.389617920E-4,1.525168419E-1
3.690291522E0,-1.925110817E-2,1.226472855E-2,1.464810371E-1
3.698489060E0,-2.842235565E-2,1.837348938E-2,1.240739822E-1
3.706685714E0,-3.109073639E-2,1.683092117E-2,8.745622635E-2
3.714895483E0,-5.874991417E-2,1.986360550E-2,7.943248749E-2
3.723092483E0,-9.429025650E-2,2.284622192E-2,4.970359802E-2
3.731290022E0,-9.239172935E-2,5.185937881E-2,8.699607849E-2
3.739514945E0,-8.584809303E-2,6.145048141E-2,1.100826263E-1
3.747712252E0,-4.742193222E-2,1.065397263E-1,1.767811775E-1
3.755923022E0,7.326936722E-2,7.919692993E-2,1.555829048E-1
3.764120252E0,1.326544285E-1,1.295852661E-2,8.001279831E-2
3.772318483E0,1.353628635E-1,1.666545868E-3,-3.595066071E-2
3.780516291E0,1.095385551E-1,-1.152324677E-2,-1.761679649E-1
3.788714444E0,-4.801034927E-3,4.866123199E-3,-2.403769493E-1
3.796926137E0,-6.952357292E-2,3.191995621E-2,-2.433218956E-1
3.805123214E0,-1.039917469E-1,5.994796753E-2,-1.730079651E-1
3.813318829E0,-9.596586227E-2,4.997968674E-2,-3.126335144E-2
3.821513060E0,-2.618885040E-2,1.598405838E-2,7.928276062E-2
3.829707560E0,5.307173729E-2,-1.131677628E-2,1.159439087E-1
3.837947290E0,9.423851967E-2,-8.210659027E-3,1.292514801E-1
3.846143444E0,1.002275944E-1,-1.288604736E-2,1.192612648E-1
3.854338944E0,5.612277985E-2,1.312541962E-2,3.781795502E-2
3.862536136E0,1.421499252E-2,1.299953461E-2,-3.124713898E-3
3.870731867E0,1.513266563E-2,2.262163162E-2,-2.990150452E-2
3.878942906E0,8.035182953E-3,-3.275394440E-3,-4.762125015E-2
3.887138444E0,3.396606445E-2,2.425193787E-3,-3.574371338E-3
3.895334252E0,9.874081612E-2,-2.562522888E-2,2.642726898E-2
3.903530059E0,1.065480709E-1,-2.519369125E-2,-1.268339157E-2
3.911725098E0,7.707715034E-2,-3.901767731E-2,-4.440927505E-2
3.919933829E0,6.525373459E-2,-2.185726166E-2,-6.381607056E-2
3.928128482E0,1.562452316E-2,-1.376724243E-2,-9.064149857E-2
3.936325829E0,-3.140878677E-2,-7.864952087E-3,-1.175622940E-1
3.944522328E0,-4.986524582E-2,1.486730576E-2,-7.275056839E-2
3.952717328E0,-9.473872185E-2,2.320861816E-2,-6.624889374E-2
3.960927175E0,-2.949380875E-2,1.008796692E-2,-3.347778320E-2
3.969124444E0,2.110695839E-2,-2.458333969E-2,-3.176212311E-3
3.977323751E0,-2.159500122E-2,-1.368522644E-2,7.510185242E-4
3.985548021E0,-3.854250908E-2,3.529548645E-2,-9.681701660E-3
3.993745174E0,-1.753020287E-2,5.050086975E-2,6.314754486E-3
4.001956521E0,5.347013474E-3,2.965593338E-2,5.507946014E-3
4.010154482E0,1.904702187E-2,1.829624176E-3,2.381563187E-2
4.018351174E0,1.849889755E-3,1.467227936E-2,8.693218231E-3
4.026548636E0,-5.597925186E-2,4.423904419E-2,2.713203430E-2
4.034746597E0,-7.541918755E-2,7.359457016E-2,4.575014114E-2
4.042957751E0,-2.792620659E-2,3.332281113E-2,2.138614655E-2
4.051155790E0,3.646993637E-2,1.922607422E-2,-3.873300552E-2
4.059351828E0,3.149008751E-2,5.563211441E-2,-9.660720825E-2
4.067547790E0,2.901721001E-2,8.997106552E-2,-1.044125557E-1
4.075744559E0,7.589817047E-3,7.427787781E-2,-9.797620773E-2
4.083986751E0,-1.127862930E-2,9.457826614E-2,-7.240056992E-2
4.092233520E0,-1.111578941E-2,7.920122147E-2,-6.618356705E-2
4.100429020E0,-3.005695343E-2,5.933427811E-2,4.517364502E-2
4.108624520E0,2.965950966E-2,3.004980087E-2,1.084351540E-1
4.116819482E0,9.173202515E-2,-2.090549469E-2,1.238918304E-1
4.125029020E0,6.806802750E-2,-6.726121902E-2,6.539249420E-2
4.133223212E0,5.225133896E-2,-5.897188187E-2,-2.134799957E-2
4.141419212E0,3.158569336E-3,-2.665710449E-2,-7.216835022E-2
4.149615097E0,-2.401351929E-3,-8.349895477E-3,-1.135530472E-1
4.157810097E0,9.354352951E-3,1.484870911E-2,-1.572542191E-1
4.166019558E0,9.918212891E-5,-7.029533386E-3,-1.699819565E-1
4.174215828E0,3.171491623E-2,-1.425886154E-2,-7.991695404E-2
4.182410789E0,1.042780876E-1,-5.267333984E-2,2.941513062E-2
4.190605597E0,7.501482964E-2,-6.054019928E-2,2.455759048E-2
4.198801097E0,1.006219387E-1,-5.959939957E-2,-9.405136108E-2
4.207011097E0,1.039917469E-1,-7.067537308E-2,-1.834163666E-1
4.215206174E0,1.474537849E-1,-2.872085571E-2,-2.366199493E-1
4.223401097E0,1.641340256E-1,-2.443361282E-2,-1.125564575E-1
4.231622020E0,1.544501781E-1,-2.984046936E-2,2.397294044E-1
4.239817135E0,1.094257832E-1,-1.818895340E-2,5.489244461E-1
4.248025943E0,-3.387069702E-2,-1.756320000E-1,6.236228943E-1
4.256220635E0,-1.610159874E-1,-2.796988487E-1,4.871454239E-1
4.264414520E0,-5.167555809E-2,-3.705716133E-1,4.097619057E-1
4.272594135E0,1.228404045E-1,-4.234127998E-1,3.043169975E-1
4.280754250E0,3.194670677E-1,-4.225196838E-1,1.651191711E-1
4.288963750E0,4.237096310E-1,-3.359131813E-1,2.071857452E-3
4.297160212E0,5.010478497E-1,-2.158112526E-1,-8.181524277E-2
4.305356712E0,5.445139408E-1,-6.226873398E-2,-2.347025871E-1
4.313554019E0,3.896226883E-1,1.069722176E-1,-4.412980080E-1
4.321751904E0,1.466708183E-1,2.974252701E-1,-4.633851051E-1
4.329988865E0,-6.155586243E-2,4.285364151E-1,-4.266753197E-1
4.338187019E0,1.680154800E-1,4.158563614E-1,-3.393144608E-1
4.346384635E0,4.722416401E-1,3.890256882E-1,-3.354601860E-1
4.353626096E0,5.083427429E-1,4.057149887E-1,-3.403515816E-1
4.361824750E0,3.839211464E-1,3.858313560E-1,-3.163719177E-1
4.370035135E0,7.483410835E-2,3.330626488E-1,-2.747521400E-1
4.378232135E0,-2.670626640E-1,1.305794716E-1,-1.264328957E-1
4.386429404E0,-4.112834930E-1,-1.711177826E-2,-1.286525726E-1
4.394628173E0,-3.594613075E-1,-1.370210648E-1,5.701684952E-2
4.402825058E0,-2.070066929E-1,-2.750949860E-1,1.834268570E-1
4.411033365E0,-1.513900757E-1,-2.816157341E-1,8.727598190E-2
4.419230942E0,-1.340150833E-1,-2.828116417E-1,1.635789871E-1
4.427428211E0,-5.223586559E-1,-2.824897766E-1,3.368983269E-1
4.435624673E0,-1.751596928E-1,-3.318114281E-1,4.073801041E-1
4.443822288E0,-5.366132259E-1,-3.089261055E-1,3.821811676E-1
4.452033750E0,-7.555263042E-1,-2.416582108E-1,3.158078194E-1
4.460230634E0,-7.578463554E-1,-2.095799446E-1,3.654756546E-1
4.468427288E0,-5.968627930E-1,-7.409858704E-2,4.017887115E-1
4.476648596E0,-3.344502449E-1,2.319669724E-2,5.664038658E-1
4.484844211E0,-1.359860897E-1,1.127614975E-1,5.462827682E-1
4.493053326E0,-1.136231422E-2,6.314992905E-2,4.285607338E-1
4.501249826E0,4.890489578E-2,1.150465012E-2,2.845230103E-1
4.509446557E0,-4.871845245E-3,4.387712479E-2,1.607418060E-3
4.517643788E0,-6.024456024E-2,4.154539108E-2,-3.797578812E-2
4.525839595E0,-2.418467999E-1,7.789278030E-2,-1.692514420E-1
4.534044403E0,-3.543279171E-1,1.206965446E-1,-2.155146599E-1
4.542239942E0,-3.228745461E-1,1.820554733E-1,-2.118020058E-1
4.550435018E0,-1.413650513E-1,1.783504486E-1,-2.547187805E-1
4.558629865E0,-8.696460724E-2,1.793813705E-1,-2.796664238E-1
4.566826018E0,-1.025114059E-1,1.934018135E-1,-4.410719872E-1
4.575047634E0,-3.039789200E-2,7.140731812E-2,-1.228384972E-1
4.583242941E0,-7.766675949E-2,6.695175171E-2,-1.817054749E-1
4.591437441E0,-8.287620544E-2,1.117496490E-1,-3.443074226E-1
4.599633788E0,1.969590187E-1,1.667022705E-3,-3.181424141E-1
4.607830634E0,3.033037186E-1,2.205371857E-3,-2.746152878E-1
4.616040903E0,1.139397621E-1,1.019802094E-1,-6.482768059E-1
4.624239557E0,-3.231048584E-2,5.928897858E-2,-5.247292519E-1
4.632437903E0,-2.592897415E-1,1.204919815E-2,2.215433121E-2
4.640634826E0,-4.742259979E-1,5.526447296E-2,5.336904526E-2
4.648831210E0,-3.707695007E-1,1.340866089E-2,1.744823456E-1
4.657040633E0,-2.220282555E-1,-9.600067139E-2,2.186074257E-1
4.665237287E0,-8.613252640E-2,-1.264114380E-1,2.710747719E-1
4.673433249E0,1.980066299E-2,-3.294944763E-2,5.538225174E-2
4.681629095E0,1.564388275E-1,2.733230591E-3,-1.241393089E-1
4.689826864E0,9.240770340E-2,7.621240616E-2,-3.887257576E-1
4.698038172E0,4.732131958E-3,6.412124634E-2,-9.215497971E-2
4.706235172E0,-1.096453667E-1,1.327676773E-1,2.188396454E-1
4.714432556E0,-2.525720596E-1,2.328629494E-1,-1.445388794E-1
4.722657633E0,-2.615456581E-1,1.707501411E-1,-7.313776016E-2
4.730854787E0,-1.793913841E-1,7.475852966E-2,3.261852264E-2
4.739066325E0,-9.700250626E-2,5.504131317E-2,1.446132660E-1
4.747263787E0,-5.926847458E-2,7.611989975E-2,1.173090935E-1
4.755460748E0,1.121034622E-1,4.921627045E-2,3.036379814E-1
4.763658633E0,-1.189022064E-1,1.632261276E-1,-9.273338318E-1
4.771857248E0,-7.142109871E-1,3.373284340E-1,-1.954185963E0
4.780061171E0,-7.173929214E-1,1.970038414E-1,-1.722008228E0
4.788258018E0,-2.162146568E-1,8.261203766E-3,-5.860891342E-1
4.796453364E0,-2.500295639E-2,3.218650818E-4,-4.370594025E-2
4.804678710E0,4.700899124E-2,2.813577652E-2,8.937263489E-2
4.812874441E0,-3.674221039E-2,6.270933151E-2,-1.080980301E-1
4.821108402E0,-2.079758644E-1,5.641603470E-2,-2.439546585E-2
4.829304402E0,-4.522066116E-1,2.936601639E-2,2.486944199E-1
4.837500440E0,-5.559306145E-1,-1.951932907E-2,2.074441910E-1
4.845725902E0,-6.545815468E-1,-4.211997986E-2,1.234765053E-1
4.853922748E0,-9.928150177E-1,2.231931686E-2,1.531529427E-1
4.862133902E0,-9.435482025E-1,2.175374031E-1,-8.597698212E-1
4.870332133E0,-3.121700287E-1,3.517732620E-1,-1.632550716E0
4.878530094E0,8.689165115E-2,5.002164841E-1,-1.843423367E0
4.886756017E0,3.017539978E-1,5.676159859E-1,-1.639113426E0
4.894952402E0,3.391184807E-1,4.193687439E-1,-1.297423363E0
4.903154633E0,1.615161896E-1,2.653856277E-1,-1.029675007E0
4.911349748E0,-5.345678329E-2,1.871085167E-1,-7.424230576E-1
4.919546786E0,-2.151126862E-1,1.327495575E-1,-5.515255928E-1
4.927772209E0,-3.276162148E-1,8.191394806E-2,-4.671368599E-1
4.935968440E0,-2.779836655E-1,1.889562607E-2,-3.534917831E-1
4.944169671E0,-2.902450562E-1,-9.658622742E-2,-3.340735435E-1
4.952367094E0,-3.430757523E-1,-1.746129990E-1,-3.368706703E-1
4.960564902E0,-1.577038765E-1,-2.325444221E-1,-1.706061363E-1
4.968789248E0,3.174276352E-1,-2.696461678E-1,3.166675568E-2
4.976985517E0,6.322438717E-1,-3.108148575E-1,4.201865196E-1
4.985187440E0,6.108253002E-1,-2.659506798E-1,6.894230843E-1
4.993382786E0,3.316206932E-1,-1.917395592E-1,7.954602242E-1
5.001579478E0,5.487489700E-2,-1.308650970E-1,8.643050194E-1
5.009802017E0,-1.817464828E-1,-4.717350006E-2,8.207731247E-1
5.017998017E0,-2.727408409E-1,1.687526703E-2,7.247567177E-1
5.026204209E0,-2.063193321E-1,5.305004120E-2,7.412652969E-1
5.034400170E0,-1.386575699E-1,3.681898117E-2,6.788134575E-1
5.042596094E0,-9.333467484E-2,2.799510956E-2,6.476993561E-1
5.050825363E0,1.300482750E-1,1.544284821E-2,6.251649857E-1
5.059020709E0,2.831854820E-1,-1.151800156E-2,5.171222687E-1
5.067259286E0,2.053174973E-1,9.469985962E-4,3.510932922E-1
5.075455132E0,-9.637451172E-2,4.340744019E-2,1.556644440E-1
5.083651516E0,-3.837361336E-1,9.246110916E-2,-9.541511536E-4
5.091882286E0,-5.454454422E-1,1.100773811E-1,-1.675939560E-1
5.100079055E0,-5.914235115E-1,5.884981155E-2,-2.925300598E-1
5.108224939E0,-5.634269714E-1,3.700733185E-2,-3.309302330E-1
5.116422286E0,-4.924330711E-1,3.766250610E-2,-2.470092773E-1
5.124624824E0,-4.129271507E-1,7.037639618E-2,-1.745872498E-1
5.132821401E0,-3.013737202E-1,1.200447083E-1,-4.327106476E-2
5.141018632E0,-1.170210838E-1,1.548824310E-1,4.936170578E-2
5.149227324E0,1.051495075E-1,1.554751396E-1,8.355093002E-2
5.157422632E0,2.536909580E-1,1.196141243E-1,5.499649048E-2
5.165618785E0,3.312535286E-1,5.707931519E-2,2.594566345E-2
5.173849670E0,2.092213631E-1,6.400108337E-3,-3.691148758E-2
5.182045401E0,1.391601562E-2,-1.805400848E-2,-9.904003143E-2
5.190254362E0,-1.804988384E-1,7.676124573E-3,-9.585571289E-2
5.198451054E0,-2.558643818E-1,6.418275833E-2,-1.176896095E-1
5.206647631E0,-1.615202427E-1,4.916477203E-2,-1.829299927E-1
5.214872708E0,-9.175682068E-2,9.671354294E-2,-1.984100342E-1
5.223070093E0,-8.915281296E-2,8.945131302E-2,-1.566100121E-1
5.231279670E0,-1.636481285E-2,8.521652222E-2,-1.520080566E-1
5.239477247E0,5.604767799E-2,1.055531502E-1,-1.264538765E-1
5.247673862E0,2.109165192E-1,7.445335388E-3,-1.431937218E-1
5.255821554E0,2.615728378E-1,-2.470016479E-2,-1.782622337E-1
5.264018785E0,2.662112713E-1,-3.853654861E-2,-1.859483719E-1
5.272229285E0,2.172179222E-1,-6.533432007E-2,-1.256308556E-1
5.280425785E0,1.530914307E-1,-4.109716415E-2,9.274482727E-4
5.288621708E0,7.152938843E-2,-2.836942673E-2,1.700773239E-1
5.296817862E0,1.137685776E-2,1.036119461E-2,2.797617912E-1
5.305015054E0,-3.732347488E-2,3.797912598E-2,3.246974945E-1
5.313255092E0,-2.037191391E-2,5.976533890E-2,3.351693153E-1
5.321452669E0,-1.374626160E-2,5.643939972E-2,3.259139061E-1
5.329650016E0,-5.405020714E-2,1.095538139E-1,3.275866508E-1
5.337848285E0,-1.181552410E-1,1.593074799E-1,3.636927605E-1
5.346043362E0,-1.111841202E-1,2.248854637E-1,3.763270378E-1
5.354252477E0,-4.846906662E-2,2.008862495E-1,3.603086472E-1
5.362450785E0,1.009833813E-1,6.850481033E-2,2.602620125E-1
5.370649323E0,1.956703663E-1,-6.914329529E-2,8.794689178E-2
5.378847515E0,1.816880703E-1,-1.441617012E-1,3.479433060E-2
5.387045631E0,9.114503860E-3,-1.588582993E-1,2.668666840E-2
5.395254208E0,-2.030067444E-1,-9.866905212E-2,7.517099380E-2
5.403450669E0,-3.262248039E-1,-3.344774246E-2,2.051901817E-1
5.411649438E0,-2.987802029E-1,2.816581726E-2,2.931213379E-1
5.419847977E0,-1.998677254E-1,4.015398026E-2,4.326505661E-1
5.428045015E0,-6.979775429E-2,5.503368378E-2,5.187082291E-1
5.436256938E0,3.373217583E-2,7.467126846E-2,5.827074051E-1
5.444455169E0,8.138346672E-2,5.354070663E-2,6.062331200E-1
5.452652630E0,1.233260632E-1,-2.265930176E-2,5.867848396E-1
5.460881861E0,2.643887997E-1,-1.398534775E-1,4.740791321E-1
5.469081630E0,3.637313843E-1,-2.341136932E-1,3.963127136E-1
5.477294861E0,4.053981304E-1,-2.642827034E-1,2.842826843E-1
5.485494438E0,4.929935932E-1,-2.215390205E-1,1.481318474E-1
5.493691246E0,6.343860626E-1,-2.570900917E-1,3.627061844E-2
5.501889053E0,8.285953999E-1,-3.411393166E-1,-1.817746162E-1
5.510086938E0,9.608615637E-1,-3.516769409E-1,-3.520874977E-1
5.518299207E0,8.888890743E-1,-2.421035767E-1,-4.472098351E-1
5.526498169E0,7.086079121E-1,-9.021234512E-2,-4.919934273E-1
5.534697438E0,4.965829849E-1,2.898502350E-2,-5.026402473E-1
5.542896592E0,3.666646481E-1,7.702541351E-2,-4.285492897E-1
5.551096515E0,2.846474648E-1,9.774684906E-2,-3.905391693E-1
5.559340630E0,3.406031132E-1,3.590393066E-2,-3.481197357E-1
5.567539592E0,3.881361485E-1,-1.016139984E-2,-3.015651703E-1
5.575738168E0,3.738391399E-1,-6.994247437E-2,-2.578516006E-1
5.583937361E0,2.836718559E-1,-4.441356659E-2,-1.695456505E-1
5.592135322E0,2.399120331E-1,-5.816936493E-3,-4.823398590E-2
5.600347745E0,2.800126076E-1,-1.010894775E-2,2.745580673E-2
5.608544707E0,2.397496700E-1,-2.999353409E-2,3.570413589E-2
5.616741437E0,1.287865639E-1,-1.358842850E-2,7.759428024E-2
5.624939168E0,-9.930133820E-3,2.699327469E-2,1.076903343E-1
5.633139207E0,-4.282736778E-2,5.549478531E-2,1.739597321E-1
5.641350245E0,-2.092885971E-2,-1.616477966E-4,2.188649178E-1
5.649551284E0,7.014226913E-2,-1.328229904E-2,2.186222076E-1
5.657750168E0,3.421759605E-2,-6.281137466E-2,1.899986267E-1
5.665947707E0,-4.993343353E-2,-1.647615433E-2,1.587872505E-1
5.674144476E0,-1.706852913E-1,4.890823364E-2,2.160015106E-1
5.682356706E0,-1.977598667E-1,7.780218124E-2,3.543276787E-1
5.690553783E0,-1.904671192E-1,5.290794373E-2,3.996024132E-1
5.698750129E0,-1.819305420E-1,6.456375122E-4,3.806328773E-1
5.706972591E0,-2.491910458E-1,1.210594177E-2,3.019824028E-1
5.715168552E0,-2.099692822E-1,1.220226288E-3,2.139511108E-1
5.723377360E0,-2.437670231E-1,-7.744312286E-3,1.594181061E-1
5.731572706E0,-3.220922947E-1,-8.084774017E-3,1.171269417E-1
5.739768245E0,-3.277592659E-1,5.682039261E-2,3.023004532E-2
5.747965014E0,-2.270495892E-1,8.331823349E-2,-9.346437454E-2
5.756162322E0,-1.795477867E-1,1.125707626E-1,-1.462750435E-1
5.764372052E0,-1.022338867E-1,2.192063332E-1,-2.556562424E-1
5.772569937E0,-6.119275093E-2,2.943568230E-1,-3.001513481E-1
5.780769360E0,-9.228944778E-3,4.220657349E-1,-3.184781075E-1
5.788969014E0,-2.138352394E-2,5.305738449E-1,-3.660140038E-1
5.797166475E0,-5.602359772E-2,5.582571030E-1,-4.189872742E-1
5.805407360E0,-4.014730453E-2,5.873537064E-1,-3.898501396E-1
5.813604168E0,4.773378372E-2,5.762915611E-1,-3.324737549E-1
5.821802898E0,1.809113026E-1,2.317943573E-1,-3.884215355E-1
5.829999129E0,3.385922909E-1,2.398824692E-2,-3.186211586E-1
5.838197321E0,3.254909515E-1,1.820325851E-2,-1.000723839E-1
5.846409206E0,2.476410866E-1,-3.680324554E-2,1.469788551E-1
5.854608514E0,2.843872309E-1,-9.100532532E-2,4.205298424E-1
5.862806898E0,-2.670764923E-2,2.221889496E-1,6.886301041E-1
5.871006167E0,-1.939358711E-1,1.637907028E-1,8.317928314E-1
5.879204167E0,-4.732656479E-1,1.665678024E-1,5.638394356E-1
5.887415206E0,-6.034567356E-1,1.365413666E-1,3.814396858E-1
5.895613860E0,-7.335116863E-1,1.620182991E-1,2.582831383E-1
5.903812744E0,-7.974354029E-1,2.012486458E-1,1.320223808E-1
5.912010552E0,-6.762613058E-1,2.597255707E-1,-4.543304443E-2
5.920208590E0,-5.014556646E-1,1.751766205E-1,-1.061043739E-1
5.928419244E0,-3.569622040E-1,1.099052429E-1,-1.429796219E-1
5.936616629E0,-2.564740181E-1,8.437585831E-2,4.906988144E-2
5.944813590E0,-1.221203804E-1,9.687900543E-2,2.988095284E-1
5.953040590E0,5.826401711E-2,1.684551239E-1,6.163425446E-1
5.961237628E0,2.623145580E-1,1.604895592E-1,1.010824680E0
5.969445859E0,2.812721729E-1,2.646965981E-1,1.270723343E0
5.977642859E0,5.130383968E-1,7.572650909E-2,1.427371502E0
5.985838898E0,8.090392351E-1,1.436309814E-1,1.464527130E0
5.994067628E0,7.872869372E-1,1.094055176E-1,1.516081810E0
6.002263513E0,3.156839013E-1,1.368904114E-1,1.594511509E0
6.010470628E0,-2.157685757E-1,-7.104921341E-2,1.605875015E0
6.018666359E0,-1.609780788E-1,-2.040176392E-1,1.177898884E0
6.026864013E0,1.071608663E-1,-2.975683212E-1,9.783015251E-1
6.035061974E0,4.161726832E-1,-4.679079056E-1,7.236838341E-1
6.043258936E0,7.004750371E-1,-5.784006119E-1,2.234363556E-1
6.051501474E0,8.916582465E-1,-8.477416039E-1,-7.137537003E-2
6.059699474E0,9.083496928E-1,-8.967175484E-1,-1.369690895E-1
6.067896897E0,1.126361132E0,-8.241448402E-1,-1.634836197E-2
6.076093320E0,1.095167637E0,-6.356744766E-1,-7.029628754E-2
6.084291128E0,1.016387939E0,-4.044308662E-1,-3.172397614E-3
6.092500513E0,8.565496206E-1,-2.313027382E-1,3.357982635E-2
6.100700243E0,8.479590416E-1,-1.249828339E-1,3.409051895E-2
6.108899051E0,8.346619010E-1,-4.132413864E-2,6.177520752E-2
6.117182243E0,6.622748971E-1,1.499166489E-1,9.406375885E-2
6.125379897E0,4.338122904E-1,3.015847206E-1,-1.000475883E-1
6.133589743E0,1.704926193E-1,3.081355095E-1,-3.934803009E-1
6.141789089E0,5.973500013E-2,1.473331451E-1,-8.257474899E-1
6.149989051E0,2.205419540E-2,-6.428241730E-3,-9.339251518E-1
6.158186705E0,5.189119577E-1,-6.798553467E-2,-7.383384705E-1
6.166385012E0,1.753602147E0,5.534696579E-2,-4.849581718E-1
6.174597397E0,1.091669798E0,-3.994703293E-2,-3.782143593E-1
6.182796243E0,2.404109687E-1,-4.098114967E-1,-3.544702530E-1
6.190994512E0,-4.802498519E-1,-5.412893295E-1,-1.559629440E-1
6.199219781E0,-5.642716885E-1,-5.861487389E-1,-1.224465370E-1
6.207417051E0,-7.404496670E-1,-1.126253605E0,-4.865651131E-1
6.215626320E0,-8.442747593E-1,-1.416694641E0,-9.373731613E-1
6.223822935E0,-1.017941594E0,-1.672007561E0,-1.056223869E0
6.232018974E0,-1.016087890E0,-1.425589085E0,-7.796635628E-1
6.240213474E0,-7.682780027E-1,-1.061429501E0,-5.562620163E-1
6.248411243E0,-6.078067422E-1,-8.911647797E-1,-3.832931519E-1
6.256557897E0,-3.369375169E-1,-7.061343193E-1,-6.155180931E-1
6.264753127E0,-2.424979210E-2,-3.906216621E-1,-8.090705872E-1
6.272947666E0,3.617967963E-1,-1.754255295E-1,-9.375505447E-1
6.281143550E0,7.771438360E-1,-2.095651627E-2,-1.058882713E0
6.289338973E0,1.096720219E0,1.122617722E-1,-1.163897514E0
6.297570820E0,1.400409460E0,1.497783661E-1,-1.236320972E0
6.305766166E0,1.389102817E0,5.115303993E-1,-1.130928993E0
6.313962281E0,1.259637952E0,9.694948196E-1,-1.190173626E0
6.322186319E0,1.178514481E0,1.394594193E0,-1.412723541E0
6.330382819E0,1.061728954E0,1.642372131E0,-1.763223171E0
6.338599742E0,9.512003660E-1,1.683604240E0,-1.962832928E0
6.346798089E0,8.761028051E-1,1.515174389E0,-1.835999489E0
6.355038319E0,6.962496638E-1,1.257308483E0,-1.383321762E0
6.363266627E0,5.263735056E-1,1.042498589E0,-7.299742699E-1
6.371462088E0,3.422209024E-1,7.184810638E-1,-4.453229904E-2
6.379665358E0,1.885197163E-1,4.300308228E-1,5.379705429E-1
6.387862050E0,-1.186102629E-2,1.475191116E-1,1.041357994E0
6.396058204E0,-1.298475862E-1,-2.746949196E-1,1.474383354E0
6.404282742E0,-1.659730673E-1,-5.568146706E-1,1.663640976E0
6.412479088E0,-1.458833814E-1,-6.765947342E-1,1.643141747E0
6.420681281E0,-1.706925631E-1,-7.339110374E-1,1.452641487E0
6.428876588E0,-2.671892047E-1,-7.297492027E-1,1.217172623E0
6.437070627E0,-4.089431763E-1,-7.189197540E-1,9.107856750E-1
6.445294857E0,-5.794470906E-1,-6.796231270E-1,6.984510422E-1
6.453490396E0,-7.523013353E-1,-5.960226059E-1,5.817890167E-1
6.461695780E0,-8.532516360E-1,-4.375162125E-1,5.499649048E-1
6.469891434E0,-8.722192049E-1,-3.223671913E-1,5.134944916E-1
6.478087665E0,-8.591706753E-1,-2.203168869E-1,4.879331589E-1
6.486284934E0,-7.755630016E-1,-1.650853157E-1,4.661293030E-1
6.494480703E0,-6.250460148E-1,-1.157197952E-1,4.621620178E-1
6.502685703E0,-4.346813560E-1,-1.851749420E-1,4.474925995E-1
6.510879819E0,-2.001443207E-1,-1.816372871E-1,3.380403519E-1
6.519074742E0,-1.060713530E-1,-1.769614220E-1,2.438755035E-1
6.527268280E0,-5.109205842E-2,-1.427774429E-1,1.699180603E-1
6.535461626E0,-8.389596641E-2,-7.014989853E-2,2.266931534E-1
6.543697780E0,-8.953866363E-2,-4.860734940E-2,3.143119812E-1
6.551891895E0,-2.110179216E-1,-5.198240280E-2,2.797451019E-1
6.560087972E0,-3.280617595E-1,-6.117153168E-2,1.757869720E-1
6.568284011E0,-4.057313800E-1,-5.844545364E-2,8.801078796E-2
6.576479472E0,-3.988473415E-1,-2.590799332E-2,-1.327924728E-1
6.584686011E0,-3.662260771E-1,3.492927551E-2,-3.891034126E-1
6.592880703E0,-2.983949780E-1,1.211967468E-1,-6.104507446E-1
6.601076472E0,-2.198550105E-1,1.666660309E-1,-7.112240791E-1
6.609304972E0,-1.231556237E-1,2.198543549E-1,-7.757620811E-1
6.617501741E0,-6.669685245E-3,2.318458557E-1,-8.582801819E-1
6.625709549E0,1.355438679E-1,2.716822624E-1,-9.776935577E-1
6.633904395E0,2.390940636E-1,3.105859756E-1,-1.033432007E0
6.642099434E0,3.232658505E-1,3.104586601E-1,-9.812254906E-1
6.650295087E0,3.932292163E-1,3.038005829E-1,-8.809394836E-1
6.658490934E0,4.317596555E-1,2.795557976E-1,-7.435293198E-1
6.666701626E0,3.464974463E-1,2.915410995E-1,-6.303672791E-1
6.674897280E0,2.023416609E-1,3.297524452E-1,-6.369209290E-1
6.683092280E0,3.624461591E-2,4.066677094E-1,-6.342277527E-1
6.691313972E0,-4.792769253E-2,4.224042892E-1,-6.347050667E-1
6.699510318E0,-1.242883652E-1,4.989194870E-1,-5.759425163E-1
6.707717472E0,-1.305214614E-1,5.853018761E-1,-4.320745468E-1
6.715913049E0,-1.038807631E-2,6.298718452E-1,-2.921185493E-1
6.724109241E0,1.453783959E-1,6.129469872E-1,-2.754020691E-1
6.732305049E0,2.318915278E-1,5.541877747E-1,-3.152480125E-1
6.740497741E0,2.673249841E-1,4.948539734E-1,-3.713884354E-1
6.748706395E0,2.048427314E-1,4.838905334E-1,-4.350385666E-1
6.756902202E0,5.516873300E-2,4.696741104E-1,-3.944740295E-1
6.765098972E0,-8.884240687E-2,4.573521614E-1,-3.122043610E-1
6.773294164E0,-1.578249037E-1,4.017210007E-1,-1.932363510E-1
6.781489741E0,-1.036622375E-1,3.480515480E-1,-3.502941132E-2
6.789727202E0,-8.480387926E-2,2.951207161E-1,1.400141716E-1
6.797923548E0,-4.571381211E-2,2.162389755E-1,3.081989288E-1
6.806120471E0,-5.866485834E-2,1.684279442E-1,4.195847511E-1
6.814314471E0,-9.769245982E-2,1.476006508E-1,5.383181572E-1
6.822507087E0,-1.527205408E-1,9.164381027E-2,5.750670433E-1
6.830714625E0,-1.710672528E-1,2.582216263E-2,5.473732948E-1
6.838909279E0,-2.197650373E-1,1.369524002E-2,5.134854317E-1
6.847106202E0,-2.153802514E-1,-2.590656281E-2,4.995756149E-1
6.855337664E0,-2.478017658E-1,1.605463028E-2,5.207667351E-1
6.863535202E0,-1.913496703E-1,5.995082855E-2,4.674072266E-1
6.871745279E0,-7.460866868E-2,7.016181946E-2,3.895578384E-1
6.879942471E0,-9.168043733E-2,1.186671257E-1,2.368354797E-1
6.888139933E0,-9.023322910E-2,1.417794228E-1,1.186466217E-1
6.896370856E0,-1.373607665E-1,1.737728119E-1,2.966165543E-2
6.904566856E0,-2.235200405E-1,2.607722282E-1,5.340576172E-3
6.912774394E0,-3.294355869E-1,3.046598434E-1,-7.166337967E-2
6.920970779E0,-4.418892860E-1,2.812786102E-1,-1.533265114E-1
6.929165894E0,-4.628661573E-1,2.392816544E-1,-2.018380165E-1
6.937389048E0,-4.951356351E-1,2.654170990E-1,-1.146616936E-1
6.945584048E0,-5.046950579E-1,3.287811279E-1,1.945114136E-2
6.953789932E0,-5.675792694E-1,3.235144615E-1,1.841158867E-1
6.961983740E0,-5.743153095E-1,3.209934235E-1,3.365840912E-1
6.970177817E0,-5.581835508E-1,2.748889923E-1,4.822702408E-1
6.978374163E0,-4.821888208E-1,1.537246704E-1,5.448341370E-1
6.986570701E0,-3.185565174E-1,-5.020904541E-2,4.672083855E-1
6.994775355E0,-1.013630256E-1,-2.425532341E-1,2.749991417E-1
7.002969586E0,2.286137640E-2,-3.404178619E-1,9.637928009E-2
7.011164278E0,1.214335114E-1,-3.138279915E-1,-1.212120056E-2
7.019390317E0,2.087911963E-1,-3.126492500E-1,-3.208160400E-2
7.027584201E0,3.483210504E-1,-3.008565903E-1,7.711982727E-2
7.035824778E0,4.574169517E-1,-3.361124992E-1,2.126994133E-1
7.044019124E0,4.728170037E-1,-3.777132034E-1,3.555083275E-1
7.052214740E0,4.368453622E-1,-4.543690681E-1,5.318779945E-1
7.060410624E0,3.760204315E-1,-4.748311043E-1,6.500091553E-1
7.068607740E0,2.427898943E-1,-4.788022041E-1,7.420506477E-1
7.076816932E0,1.383947283E-1,-3.961882591E-1,8.356008530E-1
7.085014009E0,8.801539242E-2,-2.979803085E-1,8.718957901E-1
7.093211701E0,1.837357879E-2,-1.444454193E-1,9.090437889E-1
7.101408432E0,7.163415849E-2,-3.403520584E-2,7.867946625E-1
7.109604932E0,2.209068984E-1,5.124139786E-2,6.071944237E-1
7.117814624E0,4.522281289E-1,1.966028214E-1,4.583148956E-1
7.125993124E0,6.434094310E-1,3.831605911E-1,3.617439270E-1
7.134160009E0,7.978347540E-1,5.119891167E-1,2.588500977E-1
7.142390701E0,9.262413979E-1,6.082015038E-1,1.847000122E-1
7.150587278E0,9.915981889E-1,6.590862274E-1,1.045742035E-1
7.158797739E0,1.088342190E0,6.229162216E-1,9.649419785E-2
7.166995432E0,1.092530012E0,5.055418015E-1,2.099933624E-1
7.175192393E0,9.582974315E-1,3.268680573E-1,3.201236725E-1
7.183417162E0,7.924294472E-1,1.053457260E-1,5.663957596E-1
7.191613855E0,6.254426241E-1,-1.967110634E-1,9.214782715E-1
7.199816970E0,4.086036682E-1,-5.207862854E-1,1.297859192E0
7.208014278E0,2.259657979E-1,-7.969822884E-1,1.590891838E0
7.216212970E0,3.483235836E-2,-1.087279797E0,1.816371918E0
7.224438585E0,-8.461260796E-2,-1.290290356E0,1.905108452E0
7.232635508E0,-2.196806073E-1,-1.437525272E0,1.770169258E0
7.240837624E0,-3.183269799E-1,-1.490480900E0,1.528575897E0
7.249033816E0,-2.808440924E-1,-1.482979298E0,1.173220634E0
7.257238547E0,-1.053899229E-1,-1.357872486E0,7.121906281E-1
7.265424008E0,1.399755776E-1,-1.197711945E0,2.469615936E-1
7.273623123E0,3.839333653E-1,-1.083178520E0,-8.477592468E-2
7.281863816E0,5.187176466E-1,-1.040358543E0,-3.438639641E-1
7.290062854E0,5.529029965E-1,-9.931297302E-1,-5.261759758E-1
7.298261700E0,5.328508615E-1,-9.474453926E-1,-6.643829346E-1
7.306460470E0,4.875075817E-1,-8.931760788E-1,-6.965918541E-1
7.314657200E0,4.910372198E-1,-8.656411171E-1,-6.471509933E-1
7.322866277E0,4.886876643E-1,-8.776707649E-1,-5.920548439E-1
7.331064200E0,4.598987103E-1,-8.861818314E-1,-5.719380379E-1
7.339261892E0,4.574055672E-1,-8.892068863E-1,-5.745158195E-1
7.347458700E0,4.431383610E-1,-7.891345024E-1,-5.830955505E-1
7.355655700E0,5.466421247E-1,-7.821125984E-1,-6.691460609E-1
7.363867431E0,5.722519159E-1,-7.505817413E-1,-7.537927628E-1
7.372065969E0,6.810622215E-1,-7.528223991E-1,-8.572783470E-1
7.380263738E0,7.487913966E-1,-6.851696968E-1,-8.891320229E-1
7.388494854E0,7.697727084E-1,-6.354632378E-1,-9.217576981E-1
7.396691546E0,7.314312458E-1,-6.093401909E-1,-1.061651230E0
7.404899892E0,6.313204765E-1,-5.003948212E-1,-1.158768177E0
7.413095931E0,4.905658960E-1,-3.706512451E-1,-1.195888519E0
7.421292392E0,4.333412051E-1,-2.815122604E-1,-1.087448120E0
7.429516238E0,4.574046433E-1,-2.375607491E-1,-7.976551056E-1
7.437713354E0,5.048844814E-1,-1.686091423E-1,-4.689426422E-1
7.445921546E0,6.460599899E-1,-2.002496719E-1,-1.052312851E-1
7.454115623E0,7.433854342E-1,-2.249059677E-1,1.780710220E-1
7.462310238E0,7.243599296E-1,-1.645264626E-1,3.553762436E-1
7.470540084E0,6.474642754E-1,-6.548595428E-2,4.417076111E-1
7.478736661E0,4.783501029E-1,4.988813400E-2,4.328012466E-1
7.486943969E0,2.907834351E-1,8.708953857E-2,3.421411514E-1
7.495138469E0,1.844388098E-1,3.650045395E-2,2.918519974E-1
7.503332161E0,9.682974219E-2,9.673118591E-3,3.455553055E-1
7.511526699E0,9.608469903E-2,4.500579834E-2,5.031785965E-1
7.519722430E0,9.023037553E-2,8.111143112E-2,7.489852905E-1
7.527961661E0,1.056333631E-1,9.302139282E-2,1.033378601E0
7.536156584E0,5.845928192E-2,7.031869888E-2,1.241154671E0
7.544354122E0,1.083303988E-1,2.350616455E-2,1.450474739E0
7.552559969E0,1.945763528E-1,-3.654432297E-2,1.520133018E0
7.560756315E0,3.632666469E-1,-1.254444122E-1,1.491585732E0
7.568967622E0,5.923471451E-1,-2.077507973E-1,1.400266647E0
7.577164430E0,6.843801737E-1,-2.513680458E-1,1.220008850E0
7.585361738E0,6.576871276E-1,-2.982020378E-1,9.237565994E-1
7.593557315E0,6.004344821E-1,-2.961821556E-1,6.204910278E-1
7.601751391E0,5.144165158E-1,-2.474398613E-1,2.199115753E-1
7.609957776E0,3.065795898E-1,-2.075977325E-1,-1.642408371E-1
7.618151699E0,1.668447554E-1,-1.789622307E-1,-4.426550865E-1
7.626346045E0,6.418997049E-2,-1.557841301E-1,-5.872387886E-1
7.634540084E0,-7.718801498E-5,-1.422748566E-1,-6.103868484E-1
7.642734853E0,4.038129747E-2,-1.123328209E-1,-5.550627708E-1
7.650946391E0,1.185346544E-1,-1.338171959E-1,-4.614276886E-1
7.659142930E0,1.979026347E-1,-1.900262833E-1,-3.007192612E-1
7.667341545E0,2.539713681E-1,-2.387599945E-1,-7.235908508E-2
7.675566083E0,1.982194185E-1,-2.384834290E-1,2.198925018E-1
7.683763776E0,1.027612388E-1,-2.488403320E-1,4.984474182E-1
7.691975506E0,1.557940245E-2,-3.144793510E-1,7.212038040E-1
7.700172353E0,-6.849181652E-2,-3.238754272E-1,8.600444794E-1
7.708368699E0,-7.097011805E-2,-3.434538841E-1,8.681964874E-1
7.716566583E0,2.930124104E-2,-3.498620987E-1,6.765928268E-1
7.724763622E0,1.762695014E-1,-3.486542702E-1,3.369216919E-1
7.732973583E0,2.773501873E-1,-2.661643028E-1,3.718566895E-2
7.741170083E0,3.828304410E-1,-1.722168922E-1,-2.214975357E-1
7.749367391E0,5.505146980E-1,-1.038928032E-1,-4.327287674E-1
7.757564583E0,8.329917192E-1,-7.901239395E-2,-6.141366959E-1
7.765760122E0,1.063545227E0,-6.968641281E-2,-7.595362663E-1
7.773997045E0,1.155011177E0,-1.057486534E-1,-7.979159355E-1
7.782193968E0,1.183509946E0,-9.087610245E-2,-7.750854492E-1
7.790390968E0,1.127892017E0,-6.605195999E-2,-7.052059174E-1
7.798620045E0,1.059060454E0,-4.799509048E-2,-6.337866783E-1
7.806815237E0,9.830524325E-1,-6.608009338E-3,-5.314221382E-1
7.815022544E0,9.103700519E-1,8.788108826E-4,-3.407883644E-1
7.823218391E0,8.905199170E-1,8.683681488E-3,-1.302099228E-1
7.831415121E0,8.505213857E-1,3.014993668E-2,1.608114243E-1
7.839610967E0,7.687503099E-1,1.092209816E-1,4.063653946E-1
7.847807083E0,6.185408831E-1,2.389135361E-1,6.101932526E-1
7.856013929E0,4.765127003E-1,2.970585823E-1,7.986383438E-1
7.864208583E0,4.139516652E-1,3.586654663E-1,8.912353516E-1
7.872404275E0,3.234132528E-1,4.193329811E-1,9.188442230E-1
7.880600698E0,2.598702610E-1,4.513716698E-1,9.417409897E-1
7.888797083E0,2.040686309E-1,4.453840256E-1,9.947118759E-1
7.897008236E0,1.409569383E-1,4.066143036E-1,1.046321869E0
7.905204198E0,8.996570110E-2,3.564243317E-1,1.060890198E0
7.913400352E0,-4.273205996E-4,2.968745232E-1,1.088726997E0
7.921623083E0,-6.455510855E-2,1.091432571E-1,1.124478340E0
7.929819121E0,-3.338755667E-2,-6.971359253E-3,1.056400299E0
7.938028582E0,4.461959004E-2,-5.190801620E-2,1.028508186E0
7.946223890E0,1.628662944E-1,-1.189475060E-1,9.425878525E-1
7.954420967E0,2.726870179E-1,-2.509708405E-1,8.727178574E-1
7.962616890E0,4.070124626E-1,-1.992106438E-1,6.945323944E-1
7.970813121E0,6.190976501E-1,-1.689419746E-1,5.537595749E-1
7.979024928E0,8.290590048E-1,-1.935772896E-1,4.120197296E-1
7.987222967E0,8.502122760E-1,-2.504825592E-1,1.872634888E-1
7.995420928E0,6.605198979E-1,-2.639684677E-1,6.914138794E-4
8.003620813E0,3.119068146E-1,-1.827654839E-1,-1.339521408E-1
8.011820736E0,1.645675302E-2,-1.067128181E-1,-2.243185043E-1
8.020064774E0,-2.293238193E-1,-8.998870850E-2,-3.243484497E-1
8.028263621E0,-4.353746176E-1,-7.263326645E-2,-2.882738113E-1
8.036462582E0,-4.773565531E-1,-1.269607544E-1,-3.025426865E-1
8.044661197E0,-4.212211967E-1,-1.544032097E-1,-2.692651749E-1
8.052858621E0,-2.843269110E-1,-1.547970772E-1,-1.837663651E-1
8.061068697E0,-1.036755219E-1,-1.333980560E-1,-1.104145050E-1
8.069264082E0,-2.495386451E-2,-1.067924500E-1,-8.609771729E-3
8.077460774E0,1.198767871E-2,-8.551740646E-2,2.409172058E-2
8.085659313E0,7.450573146E-3,-9.349727631E-2,4.035663605E-2
8.093856351E0,1.425417513E-2,-9.073495865E-2,3.583908081E-2
8.102066390E0,-7.320388407E-2,-2.681827545E-2,8.064270020E-3
8.110264159E0,1.343332231E-3,-1.000790596E-1,-2.165508270E-2
8.118461120E0,6.678660959E-2,-1.335945129E-1,-1.417341232E-1
8.126656813E0,1.969719678E-1,-1.723966599E-1,-2.207622528E-1
8.134851351E0,2.124529779E-1,-1.822390556E-1,-2.184991837E-1
8.143060236E0,1.988136321E-1,-1.611242294E-1,-2.400474548E-1
8.151256389E0,1.087477133E-1,-9.211397171E-2,-2.496051788E-1
8.159458966E0,-1.478229463E-2,-6.137275696E-2,-2.687358856E-1
8.167682928E0,-1.725217104E-1,-3.749990463E-2,-3.071947098E-1
8.175879312E0,-2.507140636E-1,9.084224701E-3,-3.128576279E-1
8.184087966E0,-2.882982492E-1,8.545064926E-2,-2.617187500E-1
8.192284312E0,-2.953601778E-1,1.342477798E-1,-2.161083221E-1
8.200481081E0,-2.477764785E-1,1.314349174E-1,-1.496248245E-1
8.208679620E0,-2.240688503E-1,9.615325928E-2,-9.817409515E-2
8.216877620E0,-2.375134528E-1,1.171164513E-1,4.272460938E-4
8.225088697E0,-2.905203104E-1,1.485619545E-1,1.463527679E-1
8.233285697E0,-3.945483863E-1,1.970663071E-1,2.777490616E-1
8.241483274E0,-4.280017614E-1,2.644772530E-1,3.710231781E-1
8.249669927E0,-4.055585265E-1,2.456235886E-1,4.428195953E-1
8.257866543E0,-3.928599954E-1,2.073192596E-1,5.196046829E-1
8.266106735E0,-3.542949557E-1,2.145853043E-1,6.058311462E-1
8.274304235E0,-3.179590702E-1,2.145099640E-1,6.843013763E-1
8.282501658E0,-3.118735552E-1,1.824431419E-1,7.512474060E-1
8.290699927E0,-2.304189205E-1,1.481690407E-1,7.860689163E-1
8.298897543E0,-1.780027151E-1,6.097269058E-2,7.052755356E-1
8.307153273E0,-1.658291817E-1,-3.352165222E-2,6.045751572E-1
8.315349966E0,-1.696739495E-1,-3.427743912E-2,4.645271301E-1
8.323548773E0,-1.993849277E-1,-6.530284882E-3,3.085622787E-1
8.331745350E0,-2.121795416E-1,1.922035217E-2,7.256031036E-2
8.339943696E0,-1.963911206E-1,1.548671722E-2,-1.700620651E-1
8.348154696E0,-1.710455418E-1,-1.056194305E-2,-4.001293182E-1
8.356352389E0,-1.026456058E-1,-4.088973999E-2,-5.969328880E-1
8.364549465E0,-6.782664359E-2,-6.291770935E-2,-7.728528976E-1
8.372778081E0,-1.222789288E-2,-7.592201233E-2,-8.924231529E-1
8.380975427E0,3.294286132E-2,-8.686876297E-2,-9.678492546E-1
8.389184619E0,5.320324004E-2,-1.105356216E-1,-1.018029690E0
8.397429042E0,4.875922203E-2,-1.270990372E-1,-1.060184479E0
8.405626119E0,5.347600579E-2,-1.606240273E-1,-1.022410870E0
8.413849542E0,2.877464890E-2,-1.941261292E-1,-9.647359848E-1
8.422045734E0,2.976563573E-2,-2.397437096E-1,-8.846616745E-1
8.430255581E0,6.342926621E-2,-2.601890564E-1,-8.142638206E-1
8.438450965E0,7.051151991E-2,-2.788271904E-1,-7.259502411E-1
8.446645465E0,9.160098433E-2,-2.955622673E-1,-6.389431953E-1
8.454839311E0,1.420657784E-1,-2.752609253E-1,-5.838017464E-1
8.463033734E0,1.618514955E-1,-2.342376709E-1,-4.794268608E-1
8.471242965E0,1.705758870E-1,-2.132797241E-1,-3.999614716E-1
8.479438427E0,1.628995687E-1,-2.220916748E-1,-2.711105347E-1
8.487633273E0,1.335180551E-1,-1.398262978E-1,-1.518964767E-1
8.495830927E0,1.146705151E-1,-1.674470901E-1,-7.119464874E-2
8.504026273E0,1.870959997E-1,-2.730989456E-2,-2.170372009E-2
8.512266465E0,1.642651260E-1,3.381681442E-2,4.218482971E-2
8.520461157E0,1.819499582E-1,8.079385757E-2,1.107263565E-1
8.528654542E0,1.704608500E-1,9.213924408E-2,1.958370209E-1
8.536846965E0,1.068236530E-1,1.133351326E-1,2.974662781E-1
8.545039696E0,4.802638292E-2,2.011680603E-1,3.945894241E-1
8.553245426E0,-1.532244682E-2,1.952486038E-1,5.063533783E-1
8.561440926E0,-4.533797503E-2,1.023325920E-1,5.468282700E-1
8.569634465E0,-9.511384368E-2,4.674053192E-2,5.568141937E-1
8.577828003E0,-1.953114867E-1,1.171970367E-2,5.937824249E-1
8.586020965E0,-2.675549090E-1,2.553606033E-2,6.412515640E-1
8.594227772E0,-3.231020272E-1,6.180381775E-2,6.729421616E-1
8.602423849E0,-4.336010218E-1,8.911132812E-2,6.244049072E-1
8.610618849E0,-5.336998701E-1,7.679605484E-2,5.504293442E-1
8.618815157E0,-5.802007318E-1,1.018772125E-1,5.010309219E-1
8.627010118E0,-6.086599827E-1,6.890535355E-2,4.736213684E-1
8.635234503E0,-5.758459568E-1,5.908203125E-2,4.587650299E-1
8.643430387E0,-4.726414680E-1,1.936531067E-2,4.902076721E-1
8.651624772E0,-4.172613621E-1,1.110363007E-2,4.535884857E-1
8.659847657E0,-2.907647491E-1,-1.866960526E-2,3.562612534E-1
8.668042887E0,-2.150270343E-1,5.709171295E-2,2.005367279E-1
8.676251580E0,-9.496316314E-2,8.497285843E-2,4.158592224E-2
8.684448503E0,3.541976213E-2,1.159577370E-1,-1.569800377E-1
8.692644541E0,1.565624326E-1,1.025776863E-1,-3.834762573E-1
8.700840041E0,2.424901873E-1,7.242679596E-2,-5.668973923E-1
8.709034426E0,3.391622007E-1,6.319856644E-2,-7.443399429E-1
8.717240464E0,4.358931482E-1,4.538726807E-2,-7.995452881E-1
8.725433964E0,4.707425833E-1,4.792499542E-2,-7.518119812E-1
8.733628233E0,4.908569455E-1,-2.317571640E-2,-6.654086113E-1
8.741823810E0,4.867031872E-1,-1.107382774E-1,-5.329637527E-1
8.750020426E0,4.730829895E-1,-1.034088135E-1,-3.911080360E-1
8.758260272E0,4.764009714E-1,-1.155319214E-1,-2.123608589E-1
8.766457618E0,4.771779478E-1,-1.030898094E-1,-3.643321991E-2
8.774654887E0,4.847778082E-1,-4.293107986E-2,9.410858154E-2
8.782883272E0,5.012487173E-1,6.689548492E-3,1.893672943E-1
8.791079079E0,5.311273336E-1,6.711101532E-2,2.542591095E-1
8.799287733E0,5.440175533E-1,5.315351486E-2,2.366237640E-1
8.807483579E0,5.396890640E-1,-2.098083496E-5,1.980695724E-1
8.815680618E0,5.109275579E-1,-6.025791168E-3,1.576232910E-1
8.823876233E0,4.888829589E-1,3.504276276E-2,1.225328445E-1
8.832073348E0,4.520459175E-1,8.708286285E-2,7.856845856E-2
8.840284041E0,3.674667776E-1,8.306789398E-2,-2.214336395E-2
8.848479925E0,2.884191871E-1,9.764528275E-2,-1.295976639E-1
8.856674925E0,2.303200513E-1,1.022701263E-1,-2.462949753E-1
8.864902233E0,2.430571616E-1,1.216225624E-1,-3.464179039E-1
8.873097502E0,2.334088534E-1,8.959197998E-2,-4.282102585E-1
8.881302502E0,2.038580924E-1,6.641674042E-2,-4.416608810E-1
8.889498887E0,1.787404865E-1,6.651782990E-2,-3.796272278E-1
8.897695425E0,7.892026752E-2,8.313131332E-2,-2.711324692E-1
8.905921425E0,-1.144655049E-2,8.544921875E-3,-1.281628609E-1
8.914118540E0,-7.172023505E-2,-6.296014786E-2,1.206779480E-2
8.922326771E0,-1.466778219E-1,-3.808879852E-2,1.477136612E-1
8.930524733E0,-2.023520470E-1,-2.621316910E-2,2.290983200E-1
8.938721386E0,-2.529881299E-1,-7.799148560E-3,2.702264786E-1
8.946950771E0,-2.968537509E-1,-1.920270920E-2,2.450532913E-1
8.955146040E0,-3.048309088E-1,4.013061523E-2,1.655492783E-1
8.963355694E0,-3.384019136E-1,7.472991943E-2,1.225090027E-1
8.971552194E0,-3.384760618E-1,1.346492767E-1,6.339359283E-2
8.979748694E0,-3.192443550E-1,1.674804688E-1,-1.676177979E-2
8.987945386E0,-3.261874020E-1,1.953034401E-1,-1.057434082E-2
8.996141078E0,-2.996362448E-1,1.865806580E-1,-7.578849792E-2
9.004380771E0,-2.892093658E-1,1.563577652E-1,-9.792995453E-2
9.012577386E0,-2.640167773E-1,1.336140633E-1,-1.226568222E-1
9.020773463E0,-2.070852816E-1,1.256961823E-1,-1.189546585E-1
9.028971501E0,-1.501448750E-1,4.471445084E-2,-7.532501221E-2
9.037169309E0,-8.377344906E-2,1.050901413E-2,1.053905487E-2
9.045381001E0,-9.429138899E-2,-3.712701797E-2,9.577560425E-2
9.053576578E0,-1.001604795E-1,-7.248401642E-2,1.592617035E-1
9.061772540E0,-1.181968749E-1,-6.967687607E-2,2.252378464E-1
9.069966694E0,-1.197955608E-1,-6.767606735E-2,2.797813416E-1
9.078161501E0,-1.143857688E-1,-5.711841583E-2,2.919082642E-1
9.086369424E0,-1.019902378E-1,-3.101396561E-2,2.737178802E-1
9.094564578E0,-1.494846344E-1,1.788520813E-2,2.515001297E-1
9.102760155E0,-1.204120368E-1,4.647827148E-2,1.677999496E-1
9.110956270E0,-5.795781314E-2,5.261659622E-2,7.751750946E-2
9.119151963E0,-5.461126566E-4,3.202819824E-2,-2.447795868E-2
9.127363770E0,4.231423140E-2,5.002832413E-2,-8.356952667E-2
9.135562347E0,6.347096711E-2,5.894231796E-2,-1.070756912E-1
9.143759924E0,8.415181935E-2,5.869340897E-2,-1.069240570E-1
9.152034847E0,8.102384955E-2,5.672502518E-2,-8.088397980E-2
9.160229886E0,3.532498330E-2,4.337978363E-2,-3.368186951E-2
9.168438693E0,-4.275837541E-2,1.400470734E-3,-2.722835541E-2
9.176634809E0,-1.029769331E-1,1.900005341E-2,-1.578235626E-2
9.184832001E0,-1.456560940E-1,2.955198288E-2,-7.145023346E-2
9.193028808E0,-1.542705745E-1,4.544067383E-2,-8.677101135E-2
9.201227462E0,-1.814343333E-1,5.045366287E-2,-8.604812622E-2
9.209438885E0,-2.418384403E-1,1.132869720E-2,4.786109924E-2
9.217636539E0,-2.646326125E-1,3.766489029E-2,2.171335220E-1
9.225834501E0,-3.138709068E-1,1.626062393E-2,4.174375534E-1
9.234033078E0,-2.960382104E-1,-3.746986389E-3,6.399555206E-1
9.242229039E0,-2.382040620E-1,-4.943370819E-2,7.654504776E-1
9.250472193E0,-1.857764125E-1,-9.256124496E-2,7.655153275E-1
9.258712462E0,-1.411651075E-1,-1.001462936E-1,7.075405121E-1
9.266909500E0,-1.355781257E-1,-3.614521027E-2,5.507411957E-1
9.275105885E0,-1.308144182E-1,-1.019477844E-3,3.549146652E-1
9.283303539E0,-1.458581537E-1,3.526639938E-2,1.862430573E-1
9.291512193E0,-1.641831696E-1,4.160022736E-2,3.190517426E-2
9.299707539E0,-1.899338216E-1,1.477622986E-2,-1.418027878E-1
9.307902462E0,-2.178106755E-1,3.390312195E-4,-2.367477417E-1
9.316100193E0,-2.398496866E-1,-2.054691315E-3,-3.404445648E-1
9.324346654E0,-2.095721960E-1,-1.279830933E-3,-4.398670197E-1
9.332553577E0,-1.746550798E-1,-2.121353149E-2,-5.661811829E-1
9.340749269E0,-1.372398585E-1,-4.401588440E-2,-5.836539268E-1
9.348945308E0,-8.302299678E-2,-5.054140091E-2,-5.257997513E-1
9.357141000E0,-1.939797401E-2,-9.093236923E-2,-4.166631699E-1
9.365335385E0,2.258840203E-2,-1.368489265E-1,-3.014726639E-1
9.373542269E0,1.245343685E-2,-1.535267830E-1,-2.081646919E-1
9.381738115E0,-6.572259963E-2,-1.178321838E-1,-1.529340744E-1
9.389934462E0,-1.672485769E-1,-5.187511444E-2,-1.761159897E-1
9.398157500E0,-1.604161114E-1,-8.236408234E-3,-2.514343262E-1
9.406355769E0,-1.216896176E-1,1.167035103E-1,-3.027248383E-1
9.414564731E0,-1.789915562E-2,1.921124458E-1,-3.521208763E-1
9.422763231E0,6.214018911E-2,2.422714233E-1,-3.016929626E-1
9.430961269E0,9.473984689E-2,2.484259605E-1,-2.235350609E-1
9.439160346E0,1.536620408E-1,1.986875534E-1,-1.416521072E-1
9.447359192E0,1.812399030E-1,1.268796921E-1,-7.301425934E-2
9.455571192E0,2.154937387E-1,8.350753784E-2,5.405139923E-2
9.463768384E0,2.634752691E-1,5.143785477E-2,2.014932632E-1
9.471965154E0,2.560832500E-1,2.335548401E-2,3.574447632E-1
9.480193654E0,2.077578902E-1,1.814031601E-2,5.268888474E-1
9.488388500E0,1.683402658E-1,1.525926590E-2,6.820182800E-1
9.496627000E0,7.578690350E-2,4.551792145E-2,8.805074692E-1
9.504822692E0,-3.294408321E-3,6.202602386E-2,1.001174927E0
9.513018307E0,-5.916430056E-2,4.387378693E-3,1.089867592E0
9.521215461E0,-1.461155713E-1,-1.997137070E-2,1.082156181E0
9.529411923E0,-2.164682895E-1,-5.216407776E-2,1.026185989E0
9.537621807E0,-2.792479396E-1,-7.320117950E-2,9.196882248E-1
9.545817115E0,-3.113958836E-1,-9.139394760E-2,6.931591034E-1
9.554012807E0,-2.868559062E-1,-1.126379967E-1,4.495115280E-1
9.562208076E0,-2.557347417E-1,-1.099624634E-1,1.500339508E-1
9.570404192E0,-2.011508793E-1,-1.084442139E-1,-1.031503677E-1
9.578612269E0,-1.546375751E-1,-9.075164795E-2,-3.295769691E-1
9.586806499E0,-1.227872074E-1,-1.084580421E-1,-5.587081909E-1
9.595000884E0,-1.313721538E-1,-1.228747368E-1,-7.237553596E-1
9.603196153E0,-1.179982573E-1,-1.022953987E-1,-8.658256531E-1
9.611391922E0,-1.287663132E-1,-4.316806793E-2,-9.713196754E-1
9.619597845E0,-1.074351370E-1,-2.533054352E-2,-1.073229313E0
9.627794076E0,-7.309570909E-2,-3.167104721E-2,-1.133495331E0
9.635989461E0,-3.707824647E-2,9.841918945E-4,-1.174298286E0
9.644211961E0,1.695615053E-2,-8.233547211E-3,-1.102643013E0
9.652408191E0,8.022563159E-2,-5.077409744E-2,-9.474859238E-1
9.660616614E0,1.393671334E-1,-6.723833084E-2,-7.116107941E-1
9.668813537E0,1.341309547E-1,-4.930782318E-2,-4.180784225E-1
9.677008807E0,1.264050305E-1,-4.327392578E-2,-1.357569695E-1
9.685238268E0,6.368046999E-2,-6.185722351E-2,1.718015671E-1
9.693433537E0,-2.845354378E-2,-2.775859833E-2,4.506788254E-1
9.701639883E0,-8.594621718E-2,2.736377716E-2,7.299470901E-1
9.709835614E0,-7.545629144E-2,3.639459610E-2,8.939256668E-1
9.718031422E0,-3.770719469E-2,1.330995560E-2,9.907283783E-1
9.726227806E0,1.338176429E-2,-1.582765579E-2,9.534902573E-1
9.734424576E0,7.158572227E-2,-1.211357117E-2,8.967390060E-1
9.742663499E0,9.639678895E-2,2.988243103E-2,8.128643036E-1
9.750860076E0,1.007013395E-1,3.880453110E-2,7.007570267E-1
9.759056845E0,7.909414172E-2,7.159519196E-2,5.208597183E-1
9.767253691E0,-2.026557922E-3,5.697393417E-2,3.159074783E-1
9.775449191E0,-4.929241538E-2,3.669548035E-2,1.187248230E-1
9.783660075E0,-1.061216742E-1,3.276491165E-2,-5.663013458E-2
9.791856191E0,-1.270480752E-1,4.927635193E-3,-2.200298309E-1
9.800053229E0,-1.146660298E-1,-8.935928345E-4,-3.861336708E-1
9.808249229E0,-8.777374029E-2,-7.990360260E-3,-5.290327072E-1
9.816446114E0,-2.995795012E-2,1.991176605E-2,-5.843348503E-1
9.824654037E0,8.810967207E-3,3.982877731E-2,-6.454844475E-1
9.832851268E0,2.838633955E-2,2.781724930E-2,-6.286888123E-1
9.841048691E0,5.025781691E-2,3.192996979E-2,-5.771551132E-1
9.849246114E0,5.558414757E-2,6.963729858E-3,-4.958572388E-1
9.857441152E0,1.792725921E-2,-6.646633148E-3,-3.463068008E-1
9.865648691E0,1.644460857E-2,-2.580261230E-2,-1.523427963E-1
9.873844729E0,2.703273296E-2,-3.461408615E-2,-4.367828369E-3
9.882041114E0,4.010523856E-2,-2.379226685E-2,1.121807098E-1
9.890261344E0,1.752594113E-2,-3.675937653E-2,2.190685272E-1
9.898456844E0,9.429171681E-3,-6.955146790E-3,3.213987350E-1
9.906663767E0,2.040046453E-2,1.731061935E-2,4.098653793E-1
9.914858536E0,-7.481783628E-3,1.754760742E-3,4.131326675E-1
9.923052690E0,2.586661279E-2,1.613712311E-2,4.243421555E-1
9.931247190E0,4.864896834E-2,1.951360703E-2,4.101285934E-1
9.939442152E0,7.772487402E-2,-1.414871216E-2,3.607215881E-1
9.947650806E0,8.687037230E-2,-4.782676697E-4,3.308115005E-1
9.955845575E0,4.301564395E-2,1.257658005E-2,2.893266678E-1
9.964040690E0,3.992083669E-2,3.422689438E-2,2.628526688E-1
9.972236344E0,6.353946030E-2,7.437562943E-2,1.530179977E-1
9.980432959E0,7.816104591E-2,5.167675018E-2,4.359054565E-2
9.988674613E0,1.121092513E-1,7.925939560E-2,-1.192092896E-3
9.996872728E0,1.176678389E-1,9.744453430E-2,-7.960224152E-2
1.000507058E1,1.229369268E-1,6.355142593E-2,-1.344661713E-1
1.001326823E1,1.045297459E-1,5.692672729E-2,-1.516256332E-1
1.002146630E1,1.148786843E-1,4.370450974E-2,-1.260728836E-1
1.002967930E1,9.352196753E-2,5.252265930E-2,-1.032476425E-1
1.003787500E1,6.214581430E-2,4.740476608E-2,-8.310508728E-2
1.004607030E1,7.794609666E-2,9.318113327E-2,-2.267742157E-2
1.005426615E1,1.216387898E-1,1.196079254E-1,3.307723999E-2
1.006246077E1,1.567284912E-1,8.835124969E-2,1.473236084E-2
1.007066934E1,2.195045650E-1,4.767131805E-2,-3.245735168E-2
1.007886538E1,2.129801214E-1,2.338886261E-3,-1.204290390E-1
1.008706273E1,2.339603901E-1,-8.073472977E-2,-1.800127029E-1
1.009525930E1,2.613585591E-1,-1.649498940E-1,-1.302452087E-1
1.010345530E1,2.898973227E-1,-1.738920212E-1,-4.525184631E-3
1.011166427E1,2.292980254E-1,-2.056570053E-1,5.107212067E-2
1.011986073E1,2.135232389E-1,-1.075906754E-1,-2.313413620E-1
1.012805604E1,1.683454812E-1,-2.169547081E-1,-4.081492424E-1
1.013628130E1,-3.298848122E-2,3.437471390E-2,-5.755105019E-1
1.014447834E1,-1.289657652E-1,3.516793251E-1,-6.925067902E-1
1.015268738E1,-9.519555420E-2,3.399529457E-1,-8.267922401E-1
1.016083665E1,3.874181584E-2,3.017282486E-1,-1.010846615E0
1.016903415E1,-4.308983386E-1,6.430573463E-1,-2.064815998E0
1.017725896E1,-9.111240506E-2,6.062960625E-1,-1.858848572E0
1.018545565E1,1.770388782E-1,6.058392525E-1,-1.890676975E0
1.019365996E1,2.703549862E-1,5.966644287E-1,-1.677752972E0
1.020185654E1,2.351047993E-1,5.411286354E-1,-1.463637829E0
1.021005211E1,9.029087424E-2,4.537224770E-1,-9.519419670E-1
1.021827584E1,-3.725296259E-2,3.362636566E-1,-6.612024307E-1
1.022647173E1,4.997512698E-2,-9.083509445E-2,-4.020357132E-1
1.023470892E1,3.043946028E-1,-3.450155258E-1,4.332504272E-1
1.024290765E1,5.369616747E-1,-4.905245304E-1,1.253876686E0
1.025110700E1,7.912217975E-1,-5.411310196E-1,2.110383987E0
1.025932754E1,1.002834558E0,-5.579471588E-1,3.009473801E0
1.026752696E1,1.185840607E0,-6.086940765E-1,3.560875893E0
1.027575865E1,1.085548520E0,-5.609934330E-1,3.645894051E0
1.028395696E1,9.275912046E-1,-5.119049549E-1,3.559893608E0
1.029215461E1,6.705248952E-1,-5.137794018E-1,3.174263000E0
1.030037438E1,3.100234866E-1,-4.011509418E-1,2.652074814E0
1.030857050E1,-2.406466007E-2,-2.129008770E-1,1.988527298E0
1.031677707E1,-2.943136394E-1,-1.096587181E-1,1.268417358E0
1.032497542E1,-4.505242407E-1,-1.095504761E-1,4.745349884E-1
1.033317361E1,-5.428025723E-1,-1.117763519E-1,-3.040084839E-1
1.034133727E1,-5.591255426E-1,-7.870864868E-2,-7.947721481E-1
1.034953550E1,-5.660129786E-1,2.091693878E-2,-1.245574951E0
1.035773761E1,-6.365128756E-1,-1.027841568E-1,-1.429367542E0
1.036593623E1,-6.196588874E-1,-1.477575302E-1,-1.438619137E0
1.037413511E1,-5.323181748E-1,-2.062630653E-1,-1.338901997E0
1.038235280E1,-4.299322367E-1,-2.058176994E-1,-1.155874729E0
1.039055119E1,-3.242455125E-1,-2.342534065E-1,-9.342660904E-1
1.039875557E1,-2.712368965E-1,-2.120881081E-1,-7.186164856E-1
1.040695346E1,-2.898554206E-1,-1.897821426E-1,-4.597988129E-1
1.041515165E1,-2.776433527E-1,-1.964912415E-1,-1.540517807E-1
1.042338373E1,-2.764571309E-1,-2.302064896E-1,1.017332077E-1
1.043158211E1,-2.964575887E-1,-2.125077248E-1,3.041038513E-1
1.043979292E1,-2.839020193E-1,-1.522526741E-1,4.442100525E-1
1.044799196E1,-2.287727594E-1,-1.801524162E-1,4.341468811E-1
1.045619065E1,-1.619526446E-1,-1.948494911E-1,1.922092438E-1
1.046438953E1,-1.521144807E-1,-1.732468605E-1,-6.676578522E-2
1.047258853E1,-1.762152910E-1,-1.438169479E-1,-3.535985947E-1
1.048083130E1,-2.317637503E-1,-1.067419052E-1,-5.903625488E-1
1.048903011E1,-3.056859970E-1,-1.170749664E-1,-6.920328140E-1
1.049722665E1,-2.949436307E-1,-1.282920837E-1,-6.519536972E-1
1.050542115E1,-2.566955686E-1,-1.567544937E-1,-5.732717514E-1
1.051361680E1,-1.358590126E-1,-1.328983307E-1,-4.369039536E-1
1.052182561E1,-1.348334551E-2,-7.157421112E-2,-2.737159729E-1
1.053002400E1,1.285518706E-1,-1.918840408E-2,-7.363510132E-2
1.053822330E1,1.764454544E-1,1.389312744E-2,7.518577576E-2
1.054642038E1,1.957163066E-1,4.110765457E-2,1.708421707E-1
1.055461761E1,1.640146226E-1,5.440855026E-2,2.736120224E-1
1.056282980E1,1.331131756E-1,8.204221725E-2,3.597774506E-1
1.057102646E1,1.039140671E-1,3.646612167E-2,4.586925507E-1
1.057922196E1,2.534139156E-2,1.506900787E-2,5.156402588E-1
1.058741815E1,-1.021501124E-1,9.870529175E-3,5.428972244E-1
1.059561492E1,-1.854393780E-1,-3.191947937E-3,5.523843765E-1
1.060382626E1,-1.799385548E-1,-1.232957840E-2,5.273704529E-1
1.061202188E1,-9.586545825E-2,1.431417465E-2,4.746484756E-1
1.062021796E1,2.770102024E-2,1.181602478E-2,3.465251923E-1
1.062844057E1,1.085498929E-1,-4.773139954E-4,1.669101715E-1
1.063663626E1,9.057627618E-2,-6.422996521E-3,-5.140304565E-3
1.064484450E1,2.225926518E-2,2.148103714E-2,-1.701641083E-1
1.065303896E1,-2.830827236E-2,5.377292633E-3,-2.831897736E-1
1.066123434E1,-1.093678474E-1,-2.074289322E-2,-2.726345062E-1
1.066942926E1,-1.498321891E-1,-3.813362122E-2,-1.910018921E-1
1.067762250E1,-9.011891484E-2,-3.820705414E-2,-9.528827667E-2
1.068582969E1,-3.802916408E-2,-8.362007141E-2,2.734184265E-3
1.069402592E1,5.909436941E-2,-1.052832603E-1,9.604740143E-2
1.070222219E1,1.486605108E-1,-1.185159683E-1,1.180744171E-1
1.071041803E1,2.096766829E-1,-8.249759674E-2,1.190586090E-1
1.071861507E1,2.068246007E-1,-2.357339859E-2,9.423542023E-2
1.072685365E1,1.873473227E-1,-1.304483414E-2,6.487941742E-2
1.073504811E1,1.270691752E-1,-1.245689392E-2,3.809261322E-2
1.074324361E1,7.767291367E-2,-4.650115967E-3,4.956436157E-2
1.075143961E1,1.234242320E-2,-1.406621933E-2,7.797527313E-2
1.075963603E1,-4.077339172E-2,-3.857612610E-4,8.519172668E-2
1.076784569E1,7.467776537E-3,1.693820953E-2,1.144056320E-1
1.077604211E1,1.078398079E-1,4.728269577E-2,2.614688873E-1
1.078423653E1,2.782000303E-1,3.700971603E-2,5.627698898E-1
1.079243238E1,4.240355492E-1,1.496124268E-2,8.399543762E-1
1.080062803E1,5.102615952E-1,-1.443243027E-2,9.401111603E-1
1.080883607E1,4.657680690E-1,-5.183410645E-2,7.774868011E-1
1.081703150E1,3.206364214E-1,-9.492206573E-2,6.454935074E-1
1.082522569E1,6.088354439E-2,-3.795289993E-2,4.912176132E-1
1.083342000E1,-1.644643396E-1,4.292011261E-2,3.024682999E-1
1.084161511E1,-2.590860128E-1,1.231255531E-1,1.478376389E-1
1.084982353E1,-2.487187386E-1,1.738100052E-1,2.987003326E-2
1.085802088E1,-1.907941699E-1,2.084465027E-1,-8.324813843E-2
1.086621849E1,-1.098527834E-1,2.093300819E-1,-1.023435593E-1
1.087444146E1,9.678278863E-2,3.358459473E-1,-2.674579620E-2
1.088263707E1,1.519775391E-1,2.990574837E-1,-3.165435791E-2
1.089084749E1,2.037332654E-1,1.055688858E-1,-1.527938843E-1
1.089904503E1,2.378372550E-1,-4.233169556E-2,-2.989320755E-1
1.090724130E1,1.582586467E-1,2.590608597E-2,-4.393930435E-1
1.091543815E1,-3.661960363E-3,7.368612289E-2,-5.555396080E-1
1.092363465E1,-1.316404641E-1,3.063821793E-2,-6.603970528E-1
1.093184519E1,-3.290357292E-1,9.150505066E-4,-6.732392311E-1
1.094004196E1,-4.532950222E-1,-7.040023804E-3,-7.073516846E-1
1.094823919E1,-4.998024106E-1,2.469587326E-2,-6.304001808E-1
1.095643661E1,-5.229490995E-1,1.836109161E-2,-5.781207085E-1
1.096463434E1,-4.797088206E-1,-1.772546768E-2,-4.107866287E-1
1.097287742E1,-4.037739635E-1,-7.331705093E-2,-1.703491211E-1
1.098107469E1,-3.544955552E-1,-1.238408089E-1,1.467103958E-1
1.098927215E1,-3.303793073E-1,-1.856980324E-1,3.021888733E-1
1.099746972E1,-2.909978032E-1,-2.875347137E-1,2.071819305E-1
1.100566557E1,-2.778981328E-1,-2.883548737E-1,3.628730774E-1
1.101387357E1,-2.901385725E-1,-1.924266815E-1,4.187536240E-1
1.102206796E1,-1.378374696E-1,-1.712226868E-1,2.990083694E-1
1.103026115E1,-1.445620656E-1,-1.274271011E-1,2.636070251E-1
1.103845434E1,-2.450898886E-1,-1.551904678E-1,1.104955673E-1
1.104664911E1,-3.720010221E-1,-2.018895149E-1,7.672405243E-2
1.105485692E1,-5.596106052E-1,-2.602887154E-1,1.359949112E-1
1.106305146E1,-7.094423771E-1,-2.778706551E-1,1.857013702E-1
1.107124792E1,-7.796546817E-1,-2.366251945E-1,2.410297394E-1
1.107944399E1,-6.578898430E-1,-1.125254631E-1,3.666772842E-1
1.108764119E1,-4.658582211E-1,-3.281116486E-3,4.976987839E-1
1.109585392E1,-1.975895911E-1,6.686687469E-3,5.505924225E-1
1.110405246E1,-5.497178435E-2,-6.204032898E-2,5.521793365E-1
1.111225122E1,-5.698582530E-2,-8.311843872E-2,4.548921585E-1
1.112047726E1,-1.315842867E-1,-5.862903595E-2,2.825050354E-1
1.112867411E1,-1.606235504E-1,-7.366847992E-2,3.437137604E-2
1.113688522E1,-2.951988578E-1,-5.796527863E-2,-6.012153625E-2
1.114508407E1,-3.664068282E-1,-7.026958466E-2,-1.189842224E-1
1.115328172E1,-3.365612030E-1,-5.362892151E-2,-1.468114853E-1
1.116148011E1,-9.460055828E-2,-3.165674210E-2,-1.630086899E-1
1.116962076E1,-1.612311602E-2,-2.974271774E-2,-1.252155304E-1
1.117783015E1,-2.985912561E-2,-6.449317932E-2,-3.351497650E-2
1.118602688E1,-2.690890133E-1,-1.523046494E-1,1.133213043E-1
1.119423034E1,-6.444150209E-1,-2.710895538E-1,2.786712646E-1
1.120242757E1,-8.674122095E-1,-3.672981262E-1,3.788318634E-1
1.121062468E1,-9.356704950E-1,-4.636769295E-1,4.074878693E-1
1.121886607E1,-8.863980174E-1,-4.531879425E-1,3.413667679E-1
1.122706342E1,-4.322001636E-1,-4.289975166E-1,1.420745850E-1
1.123526053E1,2.612270713E-1,-3.647079468E-1,-4.464054108E-2
1.124345753E1,9.221350551E-1,-2.553095818E-1,8.748626709E-2
1.125162711E1,1.307748079E0,-1.184334755E-1,2.373933792E-1
1.125981599E1,1.572124481E0,-5.288505554E-2,1.959648132E-1
1.126801161E1,1.638287425E0,3.742218018E-2,4.644203186E-2
1.127620742E1,1.457300186E0,1.323661804E-1,-3.478240967E-2
1.128442903E1,1.248451710E0,2.162098885E-1,-5.564689636E-2
1.129262226E1,8.889960647E-1,2.422013283E-1,-1.245307922E-1
1.130082818E1,4.130958319E-1,2.063684464E-1,-2.587642670E-1
1.130900476E1,2.513970733E-1,4.868555069E-2,-2.825260162E-1
1.131716342E1,4.808557034E-2,-7.669782639E-2,-2.012729645E-1
1.132535672E1,-2.592463791E-1,-1.149549484E-1,-8.666706085E-2
1.133355045E1,-3.391079903E-1,-1.701707840E-1,-9.702682495E-3
1.134175792E1,-2.769537270E-1,-1.739969254E-1,1.310138702E-1
1.134995303E1,-2.197864056E-1,-1.841526031E-1,3.143844604E-1
1.135814838E1,-2.495543063E-1,-2.305645943E-1,5.052814484E-1
1.136637211E1,-3.757810593E-1,-4.335517883E-1,7.351970673E-1
1.137456684E1,-6.431074739E-1,-5.782771111E-1,9.661569595E-1
1.138277368E1,-1.015429258E0,-5.778975487E-1,1.247137070E0
1.139096907E1,-1.213492393E0,-5.621523857E-1,1.470916748E0
1.139916449E1,-1.177487373E0,-5.130176544E-1,1.487541199E0
1.140736584E1,-1.043607950E0,-4.741396904E-1,1.417076111E0
1.141556057E1,-9.138065577E-1,-4.753804207E-1,1.222794533E0
1.142376818E1,-8.443700075E-1,-4.614219666E-1,9.140901566E-1
1.143196153E1,-8.729579449E-1,-3.551325798E-1,5.872573853E-1
1.144015653E1,-9.401709437E-1,-1.987605095E-1,3.302164078E-1
1.144835257E1,-8.514539003E-1,-1.080737114E-1,2.352790833E-1
1.145654761E1,-7.385439873E-1,-5.061864853E-2,3.806972504E-1
1.146478622E1,-5.890751481E-1,4.508638382E-2,5.361738205E-1
1.147297968E1,-3.621284366E-1,1.069216728E-1,6.276884079E-1
1.148117315E1,-2.393575907E-1,1.444420815E-1,6.449375153E-1
1.148936799E1,-2.139778137E-1,1.326832771E-1,6.485881805E-1
1.149756315E1,-9.588211775E-2,1.490807533E-1,4.275932312E-1
1.150577184E1,5.695617199E-2,2.380895615E-1,1.213498116E-1
1.151396738E1,2.820601463E-1,3.109474182E-1,-1.293487549E-1
1.152216492E1,5.366356373E-1,3.788666725E-1,-4.032201767E-1
1.153036099E1,6.613063812E-1,3.276286125E-1,-6.481680870E-1
1.153855645E1,6.909033060E-1,2.113680840E-1,-8.462533951E-1
1.154675761E1,6.579853892E-1,1.899490356E-1,-1.011385918E0
1.155495415E1,6.519171596E-1,2.390227318E-1,-1.157157898E0
1.156314949E1,7.273567319E-1,2.771582603E-1,-1.223732948E0
1.157137318E1,8.072391152E-1,2.561078072E-1,-1.227877617E0
1.157956699E1,8.523216248E-1,2.029252052E-1,-1.153648853E0
1.158777599E1,8.572385311E-1,2.193713188E-1,-1.098307133E0
1.159597034E1,7.594212294E-1,2.482814789E-1,-1.179433346E0
1.160416388E1,7.007344961E-1,2.826933861E-1,-1.373101234E0
1.161238395E1,6.693473458E-1,2.137932777E-1,-1.584350109E0
1.162057842E1,1.230593920E-1,-1.151375771E-1,-1.634537220E0
1.162878438E1,-3.594750762E-1,-4.876494408E-1,-1.091323376E0
1.163697880E1,3.701378107E-1,-1.257095337E-1,-3.120803833E-1
1.164517361E1,1.051007152E0,2.728776932E-1,5.001621246E-1
1.165339114E1,1.311650515E0,3.201904297E-1,5.808477402E-1
1.166158876E1,1.526322484E0,9.989023209E-2,5.622224808E-1
1.166979618E1,1.527427197E0,-1.306495667E-1,5.647158623E-1
1.167799295E1,1.132618904E0,-9.884977341E-2,4.470963478E-1
1.168618911E1,8.124960661E-1,1.549019814E-1,2.255897522E-1
1.169438661E1,4.917203188E-1,4.309058189E-1,-2.103948593E-2
1.170258415E1,4.674750566E-1,4.426908493E-1,-1.726732254E-1
1.171082457E1,4.770989418E-1,3.421697617E-1,-2.084040642E-1
1.171901876E1,3.774220943E-1,2.135248184E-1,-6.873703003E-2
1.172721311E1,8.430548906E-1,-2.156686783E-1,8.701214790E-1
1.173541022E1,1.134836316E0,-4.063367844E-1,1.578592777E0
1.174360895E1,8.057121038E-1,-9.507274628E-2,1.696994781E0
1.175182026E1,2.752881050E-1,3.547172546E-1,1.234029770E0
1.176001784E1,-1.292132139E-1,4.253854752E-1,2.039113045E-1
1.176821488E1,3.484899998E-1,2.196211815E-1,-5.746388435E-1
1.177643338E1,6.803413630E-1,9.980058670E-2,-1.251484871E0
1.178462734E1,1.039682031E0,-1.309247017E-1,-1.839234352E0
1.179282688E1,1.530462384E0,-1.525583267E-1,-8.131899834E-1
1.180102234E1,1.124242306E0,1.922106743E-1,2.330751419E-1
1.180921788E1,6.301739216E-1,3.995442390E-1,2.558803558E-1
1.181743430E1,7.971897125E-1,1.691274643E-1,-1.652703285E-1
1.182562845E1,2.572714090E-1,1.911249161E-1,-4.403076172E-1
1.183382664E1,7.674634457E-2,1.244564056E-1,-1.111583710E-1
1.184201961E1,6.553888321E-1,-1.789207458E-1,4.655952454E-1
1.185021411E1,6.584187746E-1,-9.988880157E-2,-5.505275726E-2
1.185843718E1,5.142736435E-1,-1.905517578E-1,-6.464300156E-1
1.186663007E1,2.737725973E-1,-1.456394196E-1,-9.436135292E-1
1.187483622E1,4.778790474E-2,6.933450699E-2,-1.237873077E0
1.188303180E1,-2.015856504E-1,2.661323547E-1,-1.634262562E0
1.189122795E1,-4.741340876E-1,4.781188965E-1,-1.307332993E0
1.189945726E1,-3.322349787E-1,1.096644402E-1,-4.656977654E-1
1.190765380E1,-1.344368458E-1,-2.260136604E-1,1.080713272E-1
1.191585564E1,-1.941796541E-1,-1.894640923E-1,4.912495613E-1
1.192405191E1,-4.306017160E-1,-1.056580544E-1,5.042252541E-1
1.193224753E1,-4.812222719E-1,-1.083407402E-1,1.538896561E-2
1.194047191E1,-3.460561037E-1,-2.450485229E-1,-5.857291222E-1
1.194866457E1,4.246687889E-2,-2.042827606E-1,-1.128170013E0
1.195689330E1,6.883416176E-1,-3.797149658E-1,-1.038872719E0
1.196508714E1,7.056831121E-1,-1.223735809E-1,-4.791574478E-1
1.197328099E1,1.975203753E-1,2.165360451E-1,-5.099725723E-2
1.198147472E1,-1.371518373E-1,2.961897850E-1,5.194854736E-2
1.198966964E1,-1.875537634E-1,2.216525078E-1,8.415794373E-2
1.199787568E1,-7.164800167E-2,2.918395996E-1,-9.753894806E-2
1.200607049E1,1.128579378E-1,3.185029030E-1,-1.343603134E-1
1.201426534E1,2.379263639E-1,3.639583588E-1,-2.565321922E-1
1.202249334E1,3.207298517E-1,3.064789772E-1,-1.341080666E-1
1.203068814E1,2.114832401E-1,2.360301018E-1,5.400657654E-2
1.203889372E1,1.713356972E-1,1.767706871E-1,2.997899055E-1
1.204708941E1,2.142202854E-1,1.701126099E-1,1.503372192E-1
1.205528537E1,4.064666033E-1,7.242250443E-2,-1.597070694E-1
1.206351364E1,1.545227766E-1,1.913762093E-1,-1.143465042E-1
1.207170864E1,2.741633654E-1,4.782371521E-1,-1.406221390E-1
1.207991345E1,-1.536524296E-1,4.707221985E-1,-8.132758141E-1
1.208810810E1,-3.284894228E-1,1.672224998E-1,-8.251543045E-1
1.209630268E1,-2.599014044E-1,1.175508499E-1,-5.984439850E-1
1.210452207E1,-2.224065065E-1,1.277704239E-1,-6.148118973E-1
1.211271591E1,-2.346953154E-1,9.816503525E-2,-5.487961769E-1
1.212092291E1,-2.454650402E-1,9.106588364E-2,-6.305093765E-1
1.212911849E1,-1.640963554E-1,-1.142578125E-1,-3.584456444E-1
1.213731507E1,-1.371350288E-1,-4.481658936E-1,-2.600264549E-1
1.214554203E1,-3.130409718E-1,-5.514125824E-1,-1.229186058E-1
1.215373791E1,-6.082240343E-1,-2.230911255E-1,-7.380676270E-2
1.216194837E1,-7.147545815E-1,-7.188558578E-2,-3.097538948E-1
1.217014480E1,-4.081226587E-1,-1.811065674E-1,-3.186478615E-1
1.217834214E1,-3.616172075E-1,-1.323361397E-1,-1.470537186E-1
1.218653807E1,-4.462506771E-1,2.982187271E-2,-2.514123917E-2
1.219473430E1,-4.464150667E-1,1.510443687E-1,-7.821989059E-2
1.220297411E1,-3.614907265E-1,4.328393936E-2,8.358383179E-2
1.221116895E1,-3.030617237E-1,-9.924507141E-2,3.390970230E-1
1.221936307E1,-3.298012018E-1,-1.805806160E-1,4.142389297E-1
1.222755845E1,-3.152428865E-1,-1.763477325E-1,3.880844116E-1
1.223575230E1,-3.021372557E-1,-2.218885422E-1,2.516393661E-1
1.224395907E1,-3.712049723E-1,-2.314662933E-1,-1.183447838E-1
1.225215499E1,-4.256371260E-1,-2.963304520E-2,-4.586415291E-1
1.226035060E1,-4.295090437E-1,3.296852112E-2,-7.824816704E-1
1.226854537E1,-3.907395601E-1,-1.652193069E-2,-8.182020187E-1
1.227674110E1,-2.389330864E-1,-6.046485901E-2,-7.000317574E-1
1.228495180E1,2.163519859E-1,-1.107702255E-1,-2.869944572E-1
1.229314672E1,5.626587868E-1,-2.176570892E-2,-1.803216934E-1
1.230134280E1,5.603637695E-1,1.010298729E-1,-3.949780464E-1
1.230953945E1,6.358900070E-1,8.693075180E-2,-7.464151382E-1
1.231773645E1,4.597222805E-1,4.383563995E-3,-9.822406769E-1
1.232596141E1,8.273506165E-2,-7.172346115E-2,-1.034716606E0
1.233410110E1,-2.201416492E-1,-3.070712090E-1,-7.045598030E-1
1.234229837E1,-4.101672173E-1,-4.076132774E-1,1.170101166E-1
1.235051164E1,-4.448432922E-1,-3.957805634E-1,8.085107803E-1
1.235870472E1,-4.975266457E-1,-2.788019180E-1,8.966064453E-1
1.236690360E1,-2.562844753E-1,-1.920747757E-2,5.854125023E-1
1.237509660E1,1.487998962E-1,2.746801376E-1,-3.266716003E-2
1.238329022E1,5.169808865E-1,3.613996506E-1,-4.393768311E-1
1.239151330E1,9.461162090E-1,2.684674263E-1,-5.323557854E-1
1.239970872E1,9.018652439E-1,2.508721352E-1,-3.458580971E-1
1.240791714E1,5.353293419E-1,9.687280655E-2,3.521890640E-1
1.241611137E1,3.694932461E-1,-2.778463364E-1,1.497142792E0
1.242430695E1,1.971166134E-1,-5.055036545E-1,2.381172657E0
1.243252364E1,-2.581431866E-1,-4.514431953E-1,2.706348419E0
1.244071899E1,-8.451082706E-1,-5.251116753E-1,2.408603668E0
1.244894764E1,-1.384924650E0,-7.103624344E-1,1.638001919E0
1.245714226E1,-1.505422711E0,-6.181902885E-1,1.416843414E0
1.246533503E1,-1.104789138E0,-5.635929108E-1,1.174551964E0
1.247355864E1,-5.722579956E-1,-4.790239334E-1,5.659742355E-1
1.248175491E1,-1.255862713E-1,-3.051710129E-1,1.932854652E-1
1.248995641E1,3.507943153E-1,-1.462116241E-1,1.936850548E-1
1.249815110E1,5.740272999E-1,-1.471376419E-1,2.733349800E-1
1.250634583E1,4.022355080E-1,-2.727394104E-1,2.461752892E-1
1.251456883E1,1.807458401E-1,-2.827525139E-1,8.488655090E-3
1.252276560E1,-2.516095638E-1,-2.841987610E-1,-4.781618118E-1
1.253096560E1,-3.755977154E-1,-2.066583633E-1,-1.301074028E0
1.253915953E1,-2.821626663E-1,-2.983665466E-1,-1.975918770E0
1.254735310E1,1.586866379E-1,-5.702133179E-1,-1.437029839E0
1.255554633E1,7.831785679E-1,-7.700963020E-1,-1.598114967E-1
1.256373857E1,7.625894547E-1,-9.004077911E-1,6.157674789E-1
1.257196603E1,6.653416157E-1,-9.502761364E-1,9.187283516E-1
1.258016276E1,3.809237480E-1,-8.908936977E-1,9.827842712E-1
1.258835899E1,-1.004896164E-1,-6.085939407E-1,2.940926552E-1
1.259658249E1,-2.668466568E-1,-3.536558151E-1,-2.044410706E-1
1.260477864E1,-1.117062569E-1,-1.796350479E-1,-4.345970154E-1
1.261298703E1,-1.008706093E-1,-2.700710297E-2,-6.110973358E-1
1.262118237E1,-2.974214554E-1,1.268563271E-1,-7.024579048E-1
1.262937895E1,-5.549516678E-1,2.291359901E-1,-8.461670876E-1
1.263757510E1,-7.460746765E-1,1.849498749E-1,-1.029354095E0
1.264577122E1,-5.844373703E-1,2.453360558E-1,-1.109562397E0
1.265397195E1,2.590456009E-1,4.660153389E-1,-9.055604935E-1
1.266216603E1,1.592330456E0,5.357050896E-1,-2.415199280E-1
1.267035806E1,2.683071136E0,4.215273857E-1,6.858010292E-1
1.267857195E1,2.854211807E0,2.899327278E-1,1.402737141E0
1.268676564E1,2.250174046E0,9.460306168E-2,1.714643955E0
1.269502333E1,1.435444832E0,-1.633238792E-1,1.757796288E0
1.270321968E1,6.370511055E-1,-2.727489471E-1,1.168540001E0
1.271141556E1,1.765956879E-1,-3.573491573E-1,4.629726410E-1
1.271963310E1,-2.103223801E-1,-3.780596256E-1,-3.572845459E-2
1.272782976E1,5.052280426E-2,-3.260276318E-1,-5.130715370E-1
1.273603510E1,6.552419662E-1,-2.712824345E-1,-7.954607010E-1
1.274422945E1,1.166819572E0,-1.160860062E-1,-8.343796730E-1
1.275242460E1,1.249616623E0,-1.352953911E-2,-1.002086163E0
1.276064591E1,1.008512020E0,-2.361416817E-2,-1.164021015E0
1.276883968E1,5.055651665E-1,-1.269657612E-1,-1.125864029E0
1.277704368E1,3.282070160E-3,-3.122539520E-1,-1.024335861E0
1.278523914E1,-1.404757500E-1,-3.866450787E-1,-7.879939079E-1
1.279343568E1,-1.209578514E-1,-5.185434818E-1,-4.788112640E-1
1.280163880E1,-1.534280777E-1,-5.665636063E-1,-2.101244926E-1
1.280983683E1,-3.496565819E-1,-6.239316463E-1,-4.486169815E-1
1.281804760E1,-6.027035713E-1,-5.024938583E-1,-1.116655350E0
1.282624160E1,-7.014784813E-1,-5.675289631E-1,-1.467278481E0
1.283443618E1,-7.419819832E-1,-7.726380825E-1,-1.112813950E0
1.284266010E1,-3.409595490E-1,-5.650393963E-1,-4.469909668E-1
1.285085537E1,4.073619843E-3,-5.744402409E-1,2.042570114E-1
1.285908333E1,2.732295990E-1,-4.780845642E-1,5.056262016E-1
1.286727949E1,8.160972595E-2,-4.105272293E-1,3.873143196E-1
1.287547272E1,-2.658548355E-1,-3.512592316E-1,2.632083893E-1
1.288370102E1,-6.287317276E-1,-4.628880024E-1,2.548990250E-1
1.289189626E1,-7.947344780E-1,-4.673371315E-1,7.314524651E-1
1.290009787E1,-6.161589622E-1,-5.311911106E-1,1.064297199E0
1.290829395E1,-2.734036446E-1,-3.918232918E-1,1.119164467E0
1.291649087E1,5.391645432E-2,-9.668922424E-2,4.505295753E-1
1.292471560E1,9.651184082E-3,1.874692440E-1,-5.892958641E-1
1.293291368E1,-3.149051666E-1,3.326294422E-1,-1.075419903E0
1.294114737E1,-3.995604515E-1,3.349316120E-1,-1.101257801E0
1.294934291E1,-2.324662209E-1,2.476706505E-1,-7.625498772E-1
1.295753664E1,-4.561710358E-2,1.720547676E-1,-2.333106995E-1
1.296576003E1,3.007860184E-1,7.977294922E-2,1.035780907E-1
1.297395629E1,7.569198608E-1,5.250477791E-2,2.020192146E-1
1.298216299E1,7.840938568E-1,3.014373779E-2,2.620697021E-2
1.299035837E1,1.509833336E-1,3.431797028E-3,-3.185496330E-1
1.299855449E1,-1.127137661E0,-3.910787106E-1,-7.117061615E-1
1.300677241E1,9.315314293E-1,-8.239710331E-1,-7.392792702E-1
1.301496833E1,1.395934105E0,-7.684783936E-1,9.343862534E-1
1.302319641E1,1.238100529E0,-4.037744999E-1,1.697118759E0
1.303139072E1,9.640908241E-1,2.830822468E-1,9.598441124E-1
1.303958422E1,5.863475800E-1,3.697841167E-1,4.202046394E-1
1.304781126E1,9.536828995E-1,-3.817033768E-2,-5.183568001E-1
1.305600414E1,1.026806831E0,-2.559167147E-1,-1.516499996E0
1.306420368E1,3.112459183E-1,-1.394387484E-1,-8.795294762E-1
1.307239752E1,4.886493683E-1,-2.568072081E-1,-3.680515289E-2
1.308059272E1,7.992177010E-1,-5.292501450E-1,1.070804119E0
1.308879906E1,6.498599052E-1,-4.307479858E-1,2.029981136E0
1.309699395E1,9.433841705E-2,-1.540640593E-1,1.585261345E0
1.310519510E1,6.373119354E-2,1.112947464E-1,6.616039276E-1
1.311338845E1,1.669859886E-1,1.045017242E-1,-7.844810486E-1
1.312158299E1,9.416036606E-1,-1.254109621E0,-1.776996613E0
1.312980445E1,3.852152824E-1,-1.272455692E0,-2.083014011E0
1.313799783E1,-3.747940063E-3,-4.991952181E-1,-5.895142555E-1
1.314619626E1,4.432663918E-1,-3.529083729E-2,1.013999462E0
1.315439183E1,4.282073975E-1,1.240038872E-2,2.665683746E0
1.316258706E1,-6.613225937E-1,2.396351099E-1,2.613225460E0
1.317080856E1,-1.130270958E-1,1.002243876E0,2.298094749E0
1.317900402E1,-3.543748856E-1,8.021343946E-1,3.692419052E0
1.318724187E1,-1.474905014E-2,-7.964239717E-1,1.876340866E0
1.319543764E1,4.488401413E-1,-4.958932996E-1,-7.380919456E-1
1.320363418E1,7.385854721E-1,-9.646379948E-2,-5.432305336E-1
1.321184899E1,-1.452693939E-1,4.314817190E-1,-4.850034714E-1
1.322004429E1,-4.240489006E-1,-1.062744260E-1,-3.749752045E-1
1.322824487E1,-7.085366249E-1,-4.280826449E-1,-6.964683533E-3
1.323644041E1,-5.614776611E-1,-1.581578851E-1,8.610248566E-3
1.324463641E1,-5.047826767E-1,-4.794114828E-2,-3.618311882E-1
1.325286029E1,-6.297602654E-1,-8.204406500E-2,-3.630528450E-1
1.326106995E1,-8.291110992E-1,1.529565454E-1,-1.437955379E0
1.326927583E1,1.717977524E-1,-3.315984011E-1,1.123587608E0
1.327747187E1,-1.364412308E-1,-2.023509741E-1,1.698555946E0
1.328566852E1,3.241009712E-1,-4.165571928E-1,6.634087563E-1
1.329386256E1,5.804977417E-1,-5.441093445E-1,-2.609920502E-2
1.330205672E1,5.324635506E-1,-8.835411072E-2,-2.564067841E-1
1.331027349E1,5.889463425E-1,2.376598120E-2,-3.694381714E-1
1.331846914E1,-1.822171211E-1,1.907132268E-1,-5.362381935E-1
1.332671522E1,-4.272494316E-1,-5.433320999E-3,-1.106960773E0
1.333493760E1,-5.716290474E-1,-4.343134165E-2,-4.359207153E-1
1.334313179E1,-7.115674019E-1,1.163963079E-1,3.074140549E-1
1.335133152E1,-8.264598846E-1,4.180914164E-1,5.371990204E-1
1.335952402E1,1.815843582E-2,-1.916894317E-1,-1.008777618E-1
1.336771837E1,-1.776003361E0,9.948144555E-1,-1.318044186E0
1.337593322E1,-1.803712368E0,9.115670323E-1,1.561441422E0
1.338412856E1,-8.957481384E-2,-2.870753407E-1,1.771305084E0
1.339235783E1,1.556300640E0,8.213602304E-1,1.216114044E0
1.340055329E1,1.250507832E0,3.971816301E-1,1.009484291E0
1.340874856E1,5.423636436E-1,1.433963776E-1,8.143405914E-1
1.341697179E1,1.244826794E0,-8.830779791E-2,3.320255280E-1
1.342516633E1,1.977424145E0,-1.066255569E-1,2.043600082E-1
1.343339787E1,1.531651497E0,-3.763003945E-1,1.082364082E0
1.344159425E1,1.464035511E0,-7.551549673E-1,7.211790085E-1
1.344978968E1,1.468519211E0,-1.259871840E0,-6.439771652E-1
1.345801229E1,2.521457672E0,-1.436919928E0,-3.255747795E0
1.346620768E1,1.378884792E0,8.409440517E-1,-1.734549999E0
1.347440629E1,1.548576832E0,1.736466765E0,-3.607115746E-1
1.348260164E1,3.005195141E0,-9.246230125E-3,-9.382390976E-1
1.349079748E1,2.153838158E0,-1.505304575E-1,-7.408471107E-1
1.349902195E1,5.183382034E-1,7.229542732E-2,-1.555626392E0
1.350721856E1,2.211416245E0,-1.494248271E0,-2.360979557E0
1.351543056E1,1.820405483E0,-1.450703382E0,-2.882037163E0
1.352362637E1,-1.748368740E0,1.281603813E0,-9.852609634E-1
1.353182214E1,6.092882156E-2,6.977021694E-1,-7.997226715E-2
1.354004610E1,-1.320156574E0,9.999274015E-1,3.267378807E-1
1.354824245E1,-1.689976215E0,1.180375218E0,9.840197563E-1
1.355644360E1,-1.028572559E0,-4.567693472E-1,1.117538929E0
1.356464148E1,-9.298286438E-1,-7.631975412E-1,1.037577152E0
1.357283775E1,-1.360701561E0,-1.030121326E0,9.044370651E-1
1.358105237E1,-5.777859688E-1,-1.156919837E0,7.693524361E-1
1.358924695E1,-5.411067009E-1,-1.001079679E0,4.261493683E-3
1.359744625E1,3.953456879E-3,-1.242322803E0,-1.151514053E-1
1.360564114E1,5.955028534E-2,-1.358033895E0,5.455093384E-1
1.361383545E1,2.572197914E-1,-1.325379133E0,1.271488190E0
1.362205633E1,2.962646484E-1,-1.644765615E0,1.172236443E0
1.363025033E1,-1.592531204E-1,-9.170818329E-1,-1.998224258E-1
1.363847733E1,3.348526955E-1,-1.058455706E-1,-1.535899162E0
1.364667094E1,7.903990746E-1,7.704365253E-1,-2.560236454E0
1.365486441E1,1.147994995E0,8.032577038E-1,-1.655407906E0
1.366308748E1,1.685924053E0,6.024017334E-1,-3.400654793E-1
1.367128183E1,2.006187439E0,7.331125736E-1,-4.817976952E-1
1.367951121E1,3.303970337E0,6.227605343E-1,-1.402382851E0
1.368770583E1,3.795285702E0,7.073073387E-1,-1.402673721E0
1.369590045E1,2.774822712E0,1.116967916E0,-6.787490845E-1
1.370411421E1,1.941411018E0,2.185854912E-1,-4.807085991E-1
1.371230802E1,-2.639827728E-1,-1.383829117E-2,-1.053301334E0
1.372053606E1,-8.155117035E-1,-5.228900909E-2,-1.905642986E0
1.372873148E1,-7.860512733E-1,-1.476657391E-1,-1.344446659E0
1.373692891E1,-7.580280304E-3,-2.086336613E-1,-8.792262077E-1
1.374515283E1,8.253355026E-1,1.375749111E-1,-2.076255322E0
1.375334844E1,2.952395439E0,1.155658722E0,-3.755153179E0
1.376157575E1,5.144656181E0,2.220614910E0,-4.525365829E0
1.376977121E1,6.893284798E0,2.671331882E0,-5.278983116E0
1.377796771E1,7.726332664E0,2.238749504E0,-3.260630131E0
1.378618337E1,6.593066692E0,9.144430161E-1,-7.875170708E-1
1.379437791E1,4.440464497E0,6.737017632E-2,-3.045463562E-2
1.380260506E1,2.428643227E0,-5.318331718E-1,7.087225914E-1
1.381080064E1,1.088014126E0,-1.327766061E0,7.502861023E-1
1.381899664E1,3.111572266E-1,-1.209129691E0,7.009453773E-1
1.382720448E1,6.013917923E-2,-7.124292850E-1,9.508109093E-1
1.383540091E1,1.657652855E0,-6.697199345E-1,1.591243744E-1
1.384362971E1,1.882762909E0,-2.411375046E-1,1.760748386E0
1.385182745E1,2.123379707E0,-7.436652184E-1,2.272484303E0
1.386002356E1,4.747166634E-1,-1.338219643E0,3.038327217E0
1.386824175E1,-2.542490005E0,-2.630505800E0,2.273709774E0
1.387643752E1,-4.618044853E0,-2.479720116E0,2.866272926E0
1.388466468E1,-4.639358044E0,-2.394144058E0,1.816450596E0
1.389285937E1,-5.026745319E0,-2.419835091E0,1.123236179E0
1.390105444E1,-4.158832550E0,-1.957727194E0,1.375529289E0
1.390927618E1,-3.818847656E0,-2.437253237E0,1.167347908E0
1.391747187E1,-3.468677044E0,-1.687946081E0,-2.710151672E-1
1.392573333E1,-1.957124233E0,-1.393936396E0,-1.319741726E0
1.393393044E1,-3.921208382E-1,-8.724074364E-1,-1.885794640E0
1.394212583E1,1.251952648E0,-4.888992310E-1,-1.656809330E0
1.395034256E1,-5.468845367E-3,-3.535099030E-1,-1.904194832E0
1.395853968E1,-1.825145245E0,-6.056551933E-1,-2.649552345E0
1.396676856E1,-2.770294428E0,-4.222209454E-1,-6.037763119E0
1.397496364E1,-2.622827291E0,-8.433675766E-2,-6.777995110E0
1.398315998E1,-1.026417971E0,-7.075119019E-2,-2.606200218E0
1.399137691E1,-1.736289024E0,-9.205148220E-1,-3.697738647E-1
1.399957360E1,-6.387224197E-1,-1.465570927E-1,2.812671661E-2
1.400780171E1,-1.136840582E0,-4.317855835E-1,-1.112122536E0
1.401599575E1,-9.639108181E-1,-7.254669666E-1,-9.000654221E-1
1.402419018E1,-3.177711964E-1,-5.989193916E-1,-1.756410599E-1
1.403241256E1,-1.123056769E0,5.719506741E-1,-5.896873474E-1
1.404060671E1,-1.509889483E0,-1.682264924E0,-1.016078949E0
1.404880594E1,-2.232958078E0,-6.972100735E-1,5.152435303E-1
1.405700214E1,-4.197298050E0,-1.407113910E0,8.731021881E-1
1.406519621E1,-3.583386421E0,-2.299396038E0,1.349727631E0
1.407340233E1,-2.760562181E0,-1.564676642E0,1.903926849E0
1.408159698E1,2.072612286E0,-2.607445717E-1,3.981351852E-1
1.408979740E1,5.170366764E-1,2.339561462E0,1.670435905E0
1.409799179E1,5.687727928E-1,-5.411369801E-1,4.999847412E-1
1.410618567E1,4.908021688E-1,-6.028771400E-2,3.418922424E-1
1.411440952E1,9.115353823E-1,-3.860032558E-1,4.152021408E-1
1.412260514E1,-7.226777077E-1,1.250380516E0,9.629878998E-1
1.413080690E1,-2.114477158E-1,9.838433266E-1,2.199770927E0
1.413900160E1,3.562932014E-1,-1.583194733E-2,1.228977203E0
1.414719694E1,5.291795731E-2,-5.450222492E-1,3.504056931E-1
1.415541352E1,-1.937233090E0,-1.441630006E0,-7.970590591E-1
1.416360952E1,-1.404138327E0,1.066015959E0,1.227304459E0
1.417184610E1,-2.631578207E0,1.995537281E-1,-2.232589245E0
1.418004237E1,-6.144104004E0,-9.185539484E-1,-3.923544884E0
1.418823744E1,2.463093758E0,-3.259876966E-1,-1.493983269E0
1.419643406E1,3.088270426E-1,2.741284370E-1,1.411505699E0
1.420462864E1,-1.316147208E0,-5.258595943E-2,9.985666275E-1
1.421285640E1,1.463631630E0,6.859862804E-2,2.242952347E0
1.422105171E1,1.098430276E0,4.099524021E-2,2.259421349E0
1.422925352E1,2.135771513E-1,-6.627023220E-1,9.192686081E-1
1.423747579E1,-1.561665535E-2,-1.518800139E0,-3.518934250E-1
1.424567048E1,-6.060454845E-1,-1.166996241E0,-1.930535793E0
1.425293167E1,7.102375031E-1,-4.741887450E-1,-2.168848515E0
1.426109279E1,-6.553359032E-1,-1.350025415E0,-2.336267471E0
1.426928894E1,-2.062216282E0,-1.616822004E0,-1.809891224E0
1.427751421E1,-1.738098025E0,-7.168920040E-1,-6.768512726E-1
1.428570898E1,-3.084244728E0,-1.012583375E0,-8.816947937E-1
1.429390790E1,-1.069114566E0,-2.191602230E0,-8.970346451E-1
1.430210248E1,-8.148502111E-1,-1.497461438E0,-1.419887543E-1
1.431029844E1,-8.832590580E-1,-1.017773867E0,1.067161560E0
1.431850698E1,-8.297426701E-1,-1.205653429E0,3.051959991E0
1.432670437E1,1.295164466E0,-1.172330141E0,4.167837143E0
1.433493467E1,6.536941528E-1,-7.787024975E-1,3.378475189E0
1.434313152E1,6.903045177E-1,-1.122910261E0,2.687733650E0
1.435132852E1,-3.300995827E-1,-1.058781505E0,1.545749664E0
1.435954544E1,-5.967358589E0,-3.234361649E0,1.326929092E0
1.436774125E1,-9.004688263E0,-6.484826565E0,7.471094131E-1
1.437596840E1,-9.534296036E0,-9.630729675E0,-1.542735100E0
1.438416240E1,1.662294865E0,-7.900162697E0,-1.710040569E0
1.439235660E1,8.500494003E0,-4.392224312E0,-3.038339615E0
1.440057198E1,6.540263176E0,8.379612565E-1,-3.830999374E0
1.440876783E1,-6.176986694E-1,4.643135071E0,-5.875969887E0
1.441702829E1,-1.910207033E0,6.004342556E0,-5.249229431E0
1.442522436E1,5.935115814E-1,4.503344536E0,-1.557956696E0
1.443342090E1,1.652929306E0,2.236649513E0,-7.109756470E-1
1.444163860E1,2.263453007E0,3.207719326E-2,1.641340256E0
1.444983506E1,-4.378747940E-2,-2.895472050E-1,5.512021065E0
1.445806510E1,-1.840121031E0,6.297812462E-1,6.151668549E0
1.446626164E1,-3.563673496E0,3.627581596E-1,2.800880432E0
1.447445848E1,-4.972125053E0,2.283278704E-1,-1.380730152E0
1.448267410E1,-5.076306820E0,9.562379122E-1,-3.903250694E0
1.449086979E1,-2.859230042E0,1.819401860E0,-4.478262424E0
1.449910056E1,-3.683314323E-1,2.166829586E0,-4.393318176E0
1.450729698E1,1.494011402E0,2.218747139E0,-4.723234177E0
1.451549263E1,3.656130791E0,1.316249132E0,-5.112062454E0
1.452370925E1,4.147212029E0,-1.152635813E-1,-4.254773140E0
1.453190436E1,2.188157082E0,-9.364482164E-1,-3.126620770E0
1.454010536E1,9.018254280E-1,-9.433926940E-1,-1.407094955E0
1.454830210E1,-5.201554298E-2,-4.920656681E-1,3.857107162E-1
1.455649867E1,-6.238999367E-1,-4.263790548E-1,1.502354622E0
1.456470644E1,-5.777494907E-1,-1.044189095E0,1.698021889E0
1.457290213E1,3.818497658E-1,-1.575484037E0,1.339308739E0
1.458110190E1,1.008295774E0,-1.561614752E0,1.585584641E0
1.458929671E1,3.062489033E-1,-8.767318130E-1,1.539165497E0
1.459749406E1,-4.082934856E-1,-3.607252240E-2,1.839098930E0
1.460571798E1,-9.672183990E-1,1.044058919E0,2.279296875E0
1.461391375E1,-1.398670197E0,1.829931974E0,2.135395050E0
1.462211256E1,-1.152003527E0,1.789206982E0,8.164262772E-1
1.463030713E1,-3.163135052E-1,8.640770912E-1,-1.117623806E0
1.463850256E1,-8.993053436E-2,1.336324811E-1,-2.639204979E0
1.464671917E1,1.649971008E-1,-2.437002659E-1,-3.076702118E0
1.465491340E1,6.273908615E-1,-1.216371179E0,-2.268904686E0
1.466317063E1,-4.475550652E-1,-2.546581268E0,1.951716423E0
1.467136348E1,3.797409534E-1,-2.434309483E0,2.710132599E-1
1.467955783E1,1.535089970E0,-1.898978472E0,1.596151352E0
1.468778498E1,3.186215878E0,-1.163895845E0,2.055277824E0
1.469598029E1,3.852582693E0,-1.271206141E0,1.845178604E0
1.470420848E1,3.367599726E0,-3.570942879E-1,1.389149666E0
1.471240279E1,3.358115911E0,-5.813982487E-1,1.106376648E0
1.472059621E1,2.265830517E0,3.130428791E-1,7.323007584E-1
1.472881806E1,1.948218346E0,8.521866798E-1,5.387210846E-2
1.473701406E1,2.032196283E0,1.499171257E0,-9.780025482E-2
1.474521579E1,2.230263948E0,1.703249574E0,-4.662132263E-2
1.475341140E1,2.638515472E0,1.444430351E0,-5.921020508E-1
1.476160760E1,1.554160595E0,3.674397469E-1,9.289960861E-1
1.476983106E1,2.017834187E0,-3.550744057E-1,1.582734108E0
1.477802533E1,2.457946301E0,-3.233621120E-1,1.077549934E0
1.478625486E1,1.975294113E0,3.182148933E-1,1.891694069E0
1.479444971E1,1.140652418E0,-5.204491615E-1,2.238180161E0
1.480264521E1,7.786872387E-1,-8.823239803E-1,1.682753563E0
1.481085340E1,4.505556822E-1,-4.550135136E-1,6.304636002E-1
1.481904813E1,1.429302692E-1,1.171374321E-1,4.466056824E-3
1.482727417E1,3.176862001E-1,2.621674538E-1,2.671346664E-1
1.483546894E1,5.127564669E-1,-2.910790443E-1,1.709650993E0
1.484366310E1,-7.317082882E-1,-4.183292389E-2,2.801342010E0
1.485187944E1,-1.886308193E0,6.811172962E-1,3.369245529E0
1.486007367E1,-2.669166565E0,1.578521729E0,3.206934929E0
1.486830232E1,-3.416050434E0,1.748616457E0,2.062230110E0
1.487649852E1,-3.907751560E0,2.228724480E0,1.620008469E0
1.488469448E1,-3.578862667E0,2.403609276E0,1.023234367E0
1.489291094E1,-2.479618073E0,1.944587469E0,7.338161469E-1
1.490110721E1,-8.975669146E-1,9.431283474E-1,1.058751106E0
1.490933825E1,3.149011135E-1,6.303668022E-2,2.082869530E0
1.491753548E1,9.637377262E-1,-2.491135597E-1,2.612518311E0
1.492573159E1,1.043851733E0,-4.720187187E-2,1.264845848E0
1.493395371E1,1.333508015E0,4.068708420E-1,3.603048325E-1
1.494214967E1,1.735973358E0,9.800899029E-1,-4.313430786E-1
1.495037856E1,1.542561769E0,1.596537590E0,-1.382769108E0
1.495857421E1,1.757291794E0,1.516118288E0,-1.597170353E0
1.496676986E1,1.624594688E0,5.224194527E-1,6.973266602E-3
1.497499167E1,1.166105270E0,4.652261734E-3,1.760122299E0
1.498315871E1,7.354402542E-1,-1.974670887E-1,2.501049995E0
1.499135267E1,1.437757254E0,3.675765991E-1,2.287467957E0
1.499954863E1,1.840852141E0,4.764556885E-2,1.806572914E0
1.500774463E1,1.753816605E0,-3.966798782E-1,8.363313675E-1
1.501596886E1,1.707067609E0,-1.172516346E-1,4.570903778E-1
1.502416421E1,1.623049021E0,6.085119247E-1,-1.355743408E-2
1.503236971E1,7.393269539E-1,1.522105813E0,-1.678600311E-1
1.504056671E1,7.188413143E-1,1.917060256E0,-1.158340454E0
1.504876294E1,9.903841019E-1,6.164153814E-1,-1.090349197E0
1.505697652E1,-2.594995499E-2,2.344579697E-1,3.569955826E-1
1.506517206E1,-1.917540550E0,3.429518938E-1,-9.124546051E-1
1.507337379E1,-1.992662430E0,-2.501034737E-1,-6.319332123E-2
1.508157152E1,-1.190326214E0,1.530365586E0,1.744203568E-1
1.508976821E1,-1.200071096E0,1.747475863E-1,2.087745667E-1
1.509799325E1,-3.101083517E0,-8.506661654E-1,-1.868342400E0
1.510619048E1,-1.520226002E0,-1.299324632E0,-1.736522675E0
1.511439213E1,-7.147951126E-1,-1.210212708E-3,-1.187442780E0
1.512258959E1,-6.922223568E-1,7.882454991E-1,-1.023144722E0
1.513078763E1,3.010047197E0,-7.118029594E-1,5.115661621E-1
1.513900609E1,-1.004242897E0,-9.744386673E-1,-2.317830086E0
1.514720406E1,-9.380683899E-1,-2.534960508E-1,4.794178009E-1
1.515543652E1,-2.006175518E-1,-2.527697563E0,1.302293777E0
1.516363202E1,-1.422711134E0,-2.352464199E0,1.805925369E-1
1.517182859E1,-2.202556133E-1,-1.697970748E0,3.067636490E-1
1.518005190E1,-3.668652773E0,-1.274366498E0,-4.230853081E0
1.518824786E1,1.594583988E-1,-9.230637550E-1,-6.197424889E0
1.519647625E1,7.654205799E0,8.938282967E0,1.794218063E0
1.520467152E1,-5.798714161E-1,7.731509209E0,-4.393091202E-1
1.521287336E1,-1.579193354E0,3.881794453E0,-1.218073368E0
1.522108940E1,-1.063220739E0,-3.359289169E-1,-2.744292259E0
1.522928286E1,3.344140053E-1,-3.752485514E0,-2.602356911E0
1.523750975E1,7.713365555E-1,-3.579043150E0,-9.121131897E-2
1.524570409E1,4.207754135E-2,-4.715721130E0,-7.070322037E-1
1.525388721E1,2.147855759E-1,-3.671890259E0,-2.608165741E0
1.526210740E1,1.099134445E0,-4.312507629E0,-5.092724323E0
1.527030532E1,-6.806230545E-2,-4.340090275E0,-6.467942238E0
1.527853613E1,-2.969341040E0,-1.547164679E0,-5.324724197E0
1.528673379E1,-3.511083126E0,-1.459203482E0,-3.636007786E0
1.529492959E1,-3.392642021E0,-2.537274361E0,-3.752852917E0
1.530315663E1,-1.990483284E0,-2.860418081E0,-1.736275673E0
1.531135425E1,-8.267211914E-1,-2.460707426E0,3.258113861E-1
1.531958479E1,-1.398423195E0,-1.953685760E0,8.585677147E-1
1.532778052E1,-2.203059912E0,-1.845224619E0,1.175996304E0
1.533597728E1,-3.448848248E0,-1.415408373E0,1.037322521E0
1.534420267E1,-4.219272614E0,-6.261069775E-1,1.155630112E0
1.535239998E1,-3.123147964E0,-2.729227543E-1,1.395281792E0
1.536060175E1,-1.475396633E0,-9.644222260E-2,8.032484055E-1
1.536879836E1,-6.548590660E-1,2.526025772E-1,2.758378983E-1
1.537699452E1,-2.147054672E-2,2.302174568E-1,6.896634102E-1
1.538521913E1,2.980213165E-1,-2.042531967E-2,1.897884846E0
1.539341563E1,1.072168350E0,-3.756766319E-1,3.562493801E0
1.540167729E1,1.559019089E0,-9.422082901E-1,4.590591908E0
1.540987344E1,9.542379379E-1,-9.943580627E-1,5.112833500E0
1.541807059E1,7.654552460E-1,-7.646269798E-1,4.064035892E0
1.542628929E1,1.826122761E0,-1.088437080E0,1.271587372E0
1.543448463E1,2.528680801E0,-1.025947094E0,-8.749051094E-1
1.544268825E1,3.043459415E0,-6.709504128E-1,-9.783434868E-1
1.545088409E1,2.942910671E0,-4.584612846E-1,-7.182145119E-1
1.545908178E1,2.034265518E0,-2.868332863E-1,4.185056686E-2
1.546730605E1,1.918787956E0,2.188777924E-2,8.481912613E-1
1.547550198E1,1.544888973E0,3.166885376E-1,2.270969391E0
1.548373025E1,1.034924030E0,-1.597576141E-1,2.656435966E0
1.549192705E1,9.087564945E-1,-1.247518063E0,1.595663071E0
1.550012544E1,2.195227861E0,-2.354781628E0,5.951437950E-1
1.550832221E1,1.537692308E0,-2.845449924E0,-7.601509094E-1
1.551651944E1,5.593423843E-1,-1.358959198E0,-1.567020416E0
1.552474909E1,4.770650864E-1,-3.776612282E-1,-1.918710709E0
1.553294471E1,3.826558590E-1,-4.475975037E-2,-1.774047375E0
1.554113948E1,6.144618988E-2,-1.776857376E-1,-9.114503860E-1
1.554935513E1,-1.246876717E-1,-1.454877853E-1,2.157430649E-1
1.555755067E1,5.844926834E-2,-1.408476830E-1,8.455071449E-1
1.556577967E1,6.625394821E-1,-2.703413963E-1,1.243486881E0
1.557397467E1,6.483592987E-1,2.740306854E-1,9.794764519E-1
1.558216875E1,2.824096680E-1,-3.350834846E-1,5.822505951E-1
1.559039213E1,-1.185676575E0,-8.921842575E-1,9.066429138E-1
1.559858978E1,-1.017572641E0,-8.114237785E-1,-1.032501698E0
1.560681805E1,4.658584595E-1,1.328392029E-1,-2.622585297E0
1.561501517E1,6.488604546E-1,6.663789749E-1,-2.514426231E0
1.562321148E1,-1.910552979E-1,-7.338857651E-2,-9.945173264E-1
1.563143598E1,-5.409133434E-1,-6.904025078E-1,9.438815117E-1
1.563963140E1,-1.044893265E-1,-5.926866531E-1,1.249047756E0
1.564789248E1,3.810977936E-1,-1.209845543E-1,1.691675186E0
1.565608875E1,7.045021057E-1,1.897406578E-1,4.793419838E-1
1.566428574E1,3.462495804E-1,2.214345932E-1,-8.548784256E-1
1.567250255E1,-6.965160370E-2,3.219876289E-1,-1.502251625E0
1.568069963E1,-1.803970337E-2,1.632308960E-1,-9.302940369E-1
1.568890021E1,-4.365894794E-1,3.587865829E-1,-6.452651024E-1
1.569709621E1,-5.539786816E-1,7.305550575E-1,3.351969719E-1
1.570529125E1,-4.827880859E-2,8.315110207E-1,6.096262932E-1
1.571351590E1,4.929428101E-1,3.131098747E-1,8.247461319E-1
1.572171255E1,9.680948257E-1,-2.183737755E-1,1.500764370E0
1.572994086E1,6.796751022E-1,4.157586098E-1,4.716391087E0
1.573813648E1,5.780324936E-1,5.772285461E-1,4.513199806E0
1.574633094E1,-7.260687351E-1,6.487045288E-1,3.005758286E0
1.575455301E1,-1.401023865E0,5.053429604E-1,2.138595581E-1
1.576274825E1,-1.271737814E0,3.940644264E-1,-3.106696606E0
1.577097555E1,-2.169699669E-1,3.054361343E-1,-5.524693012E0
1.577917113E1,2.137355804E-1,-1.223635674E-1,-4.879724026E0
1.578736486E1,-6.540446281E-1,3.494448662E-1,-2.127777100E0
1.579557151E1,-1.020739079E0,1.728285313E0,-1.074316502E0
1.580376324E1,-1.382625818E0,1.979573727E0,-1.717919350E0
1.581198905E1,-9.156255722E-1,2.496595860E0,-1.906227589E0
1.582018386E1,-1.709251404E-1,2.247234344E0,-1.237173080E-1
1.582837694E1,2.758617401E-1,1.568296432E0,2.204323292E0
1.583659175E1,1.513202667E0,8.991637230E-1,3.005369663E0
1.584478474E1,1.606894970E0,4.129452705E-1,3.498148441E0
1.585301232E1,1.299416542E0,-4.280066490E-1,2.317938328E0
1.586120378E1,1.265520096E0,-4.458456039E-1,5.403752327E-1
1.586939667E1,1.344975471E0,-1.416840553E-1,-6.000680923E-1
1.587761090E1,1.222175121E0,2.338356972E-1,-2.053892612E0
1.588580428E1,7.414011955E-1,1.170986176E0,-2.185454845E0
1.589406078E1,3.852686882E-1,1.607130051E0,-1.241129398E0
1.590225398E1,3.594007492E-1,1.527531624E0,-8.734965324E-1
1.591044778E1,2.003355026E-1,1.308209896E0,-7.414884567E-1
1.591867013E1,1.461648941E-1,8.501114845E-1,-8.428373337E-1
1.592686371E1,5.945158005E-2,7.929010391E-1,-8.198804855E-1
1.593506413E1,-8.590602875E-2,1.697792053E0,-6.561412811E-1
1.594325767E1,7.876157761E-2,2.272687197E0,-2.992110252E-1
1.595145267E1,3.297171593E-1,2.432540417E0,4.475345612E-1
1.595967586E1,5.454783440E-1,1.880631447E0,4.668364525E-1
1.596787090E1,1.317782402E-1,1.577991009E0,-3.045783043E-1
1.597607151E1,-1.822090149E-2,4.747591019E-1,-6.728944778E-1
1.598426605E1,-8.120434284E-1,-3.664889336E-1,-1.122824669E0
1.599245905E1,-1.311084509E0,-5.803484917E-1,-9.702491760E-1
1.600068374E1,-1.262609959E0,-7.099242210E-1,2.133316994E-1
1.600887651E1,-8.991596699E-1,-2.027803421E0,2.263749599E0
1.601710244E1,-8.924939632E-1,-1.884392262E0,2.607242584E0
1.602529344E1,-7.412354946E-1,-7.901601791E-1,1.856503963E0
1.603348628E1,-5.147442818E-1,-8.782625198E-2,1.267119408E0
1.604169101E1,-2.818551064E-1,-5.224671364E-1,1.009910107E0
1.604988351E1,1.407146454E-2,-1.449064255E0,9.137206078E-1
1.605810932E1,1.210608006E0,-1.335751057E0,1.423082829E0
1.606630282E1,1.929497242E0,-1.324828148E0,1.717124462E0
1.607449601E1,1.488546848E0,-1.773587704E0,2.391983509E0
1.608272063E1,7.629489899E-1,-2.803795338E0,3.982094765E0
1.609091374E1,9.881210327E-2,-6.086079121E0,8.209009171E0
1.609914105E1,5.313516617E0,-3.957316399E0,5.732204914E0
1.610733413E1,5.796522617E0,-1.817782402E0,2.784969807E0
1.611552786E1,6.439509392E-1,-1.487236977E0,3.029575348E-1
1.612374517E1,-2.452691078E0,-3.404288292E-1,-1.513144016E0
1.613194001E1,-2.304343462E0,-1.560849190E0,-1.929528236E0
1.614019651E1,-7.160971165E-1,-3.182669401E0,-2.568530083E0
1.614839001E1,1.244200230E0,-2.151438951E0,-4.568092346E0
1.615658044E1,2.097525597E-1,-3.108965397E0,-3.643937588E0
1.616479594E1,-1.288602829E0,-2.653317213E0,-1.454246044E0
1.617298936E1,-7.467584610E-1,-1.514546394E0,-1.706663609E0
1.618118847E1,-3.365087509E-1,-1.025975943E0,-1.685945034E0
1.618938424E1,-4.452176094E-1,-5.370192528E-1,-1.411962986E0
1.619758036E1,-3.095016479E-1,2.276481152E0,-2.757120132E-1
1.620580590E1,-4.146089554E-1,5.340290546E0,-4.435873032E-1
1.621400232E1,-6.750249863E-1,3.473968029E0,-1.667423248E-1
1.622220167E1,-1.022138119E0,8.722963333E-1,-4.152188301E-1
1.623039632E1,-2.607435465E0,5.858237743E-1,4.662132263E-2
1.623858974E1,-3.167309046E0,4.731457233E-1,-6.699848175E-2
1.624689771E1,-3.020801067E0,-5.470550060E-1,-1.238270283E0
1.625509174E1,-2.082132578E0,-1.427321196E0,-1.681741714E0
1.626329182E1,-1.570497751E0,-6.742620468E-1,-9.300580025E-1
1.627148659E1,-9.071788788E-1,-3.789250851E-1,-7.343955040E-1
1.627968101E1,2.455940247E-1,-9.540178776E-1,-9.933733940E-1
1.628792732E1,1.268872261E0,-1.277452707E0,-2.274303436E-1
1.629612174E1,1.488055706E0,-1.135076761E0,8.091654778E-1
1.630434936E1,1.135981083E0,-1.681188822E0,2.422413826E-1
1.631254478E1,6.665282249E-1,-1.115145445E0,3.432602882E-1
1.632074044E1,-6.355996132E-1,3.835418224E-1,5.958256721E-1
1.632895686E1,-2.689981937E0,3.413279057E-1,-3.526082039E-1
1.633715267E1,-3.559579611E0,8.029086590E-1,-9.835033417E-1
1.634538055E1,-3.255676985E0,1.579082012E0,-1.076375961E0
1.635357632E1,-2.645485401E0,1.573915482E0,-1.442918301E0
